Run Block Trial Response s1 s2 s3 invord i1 i2 i3 f1 f2 f3 responsetime
0 0 0 1 30.0 40.0 70.0 0 4 5 8 1 9 14 1.10706210136
0 0 1 0 70.0 10.0 0.0 1 8 2 1 2 10 12 1.11647105217
0 0 2 1 0.0 20.0 30.0 0 1 3 4 1 4 14 3.08494114876
0 0 3 1 20.0 30.0 70.0 0 3 4 8 0 9 11 1.22169995308
0 0 4 0 70.0 30.0 0.0 1 8 4 1 4 13 14 0.996841192245
0 0 5 1 20.0 50.0 70.0 0 3 6 8 8 10 14 2.12390708923
0 0 6 0 50.0 20.0 10.0 1 6 3 2 3 5 12 3.7169470787
0 0 7 0 10.0 50.0 60.0 0 2 6 7 0 10 13 4.12609291077
0 0 8 1 10.0 20.0 60.0 0 2 3 7 6 12 13 1.4088280201
0 0 9 0 0.0 60.0 70.0 0 1 7 8 0 1 10 1.71774196625
0 0 10 1 0.0 30.0 60.0 0 1 4 7 9 12 13 1.43539810181
0 0 11 1 20.0 40.0 60.0 0 3 5 7 7 9 11 3.0464861393
0 0 12 0 30.0 10.0 0.0 1 4 2 1 3 8 10 4.50837993622
0 0 13 0 70.0 50.0 40.0 1 8 6 5 5 8 11 4.51332998276
0 0 14 0 50.0 40.0 0.0 1 6 5 1 1 2 11 4.0931019783
0 0 15 0 70.0 20.0 0.0 1 8 3 1 5 6 9 3.2880730629
0 0 16 0 40.0 60.0 70.0 0 5 7 8 3 10 12 7.88424611092
0 0 17 0 60.0 10.0 0.0 1 7 2 1 3 7 10 3.47804808617
0 0 18 0 60.0 40.0 10.0 1 7 5 2 2 4 12 4.05811810493
0 0 19 1 50.0 60.0 70.0 0 6 7 8 2 9 14 11.3817110062
0 0 20 1 0.0 40.0 70.0 0 1 5 8 4 5 9 3.31283211708
0 0 21 0 60.0 40.0 30.0 1 7 5 4 2 7 14 2.42128491402
0 0 22 0 60.0 20.0 0.0 1 7 3 1 6 10 12 1.72915291786
0 0 23 0 60.0 50.0 0.0 1 7 6 1 5 10 11 2.12894105911
0 0 24 0 70.0 60.0 30.0 1 8 7 4 0 2 7 5.05704283714
0 0 25 1 10.0 30.0 50.0 0 2 4 6 3 4 6 1.80854511261
0 0 26 0 50.0 30.0 20.0 1 6 4 3 1 5 9 1.37094807625
0 0 27 1 0.0 20.0 40.0 0 1 3 5 0 5 10 2.31660699844
0 0 28 0 60.0 50.0 20.0 1 7 6 3 1 3 7 6.27836298943
0 0 29 1 70.0 60.0 20.0 1 8 7 3 2 7 10 2.98971104622
0 0 30 1 30.0 50.0 70.0 0 4 6 8 3 9 11 3.02953696251
0 0 31 0 10.0 60.0 70.0 0 2 7 8 0 3 13 4.87423586845
0 0 32 1 20.0 30.0 40.0 0 3 4 5 0 1 7 2.31711292267
0 0 33 0 40.0 20.0 10.0 1 5 3 2 1 6 13 1.98958683014
0 0 34 0 50.0 40.0 30.0 1 6 5 4 0 3 10 3.48613095284
0 0 35 0 50.0 20.0 0.0 1 6 3 1 1 5 13 2.89692902565
0 0 36 1 20.0 40.0 70.0 0 3 5 8 6 9 12 2.81896400452
0 0 37 0 10.0 40.0 50.0 0 2 5 6 0 8 14 9.07611608505
0 0 38 1 10.0 30.0 60.0 0 2 4 7 0 8 9 1.14110422134
0 0 39 1 10.0 20.0 70.0 0 2 3 8 1 9 13 1.1034681797
0 0 40 0 30.0 20.0 10.0 1 4 3 2 0 4 13 6.20635700226
0 0 41 1 20.0 30.0 60.0 0 3 4 7 4 6 11 1.76889395714
0 0 42 1 10.0 30.0 70.0 0 2 4 8 3 4 10 2.23826384544
0 0 43 1 0.0 40.0 60.0 0 1 5 7 12 13 14 1.03891205788
0 0 44 0 70.0 50.0 0.0 1 8 6 1 1 2 8 1.55339884758
0 0 45 0 40.0 30.0 0.0 1 5 4 1 0 4 14 1.65786218643
0 0 46 0 60.0 50.0 30.0 1 7 6 4 1 3 13 4.83022093773
0 0 47 0 70.0 50.0 10.0 1 8 6 2 4 8 13 5.09154987335
0 0 48 0 50.0 10.0 0.0 1 6 2 1 2 6 13 1.32665395737
0 0 49 1 0.0 10.0 40.0 0 1 2 5 3 11 12 2.10792803764
0 0 50 1 20.0 40.0 50.0 0 3 5 6 2 8 9 8.0479528904
0 0 51 0 40.0 30.0 10.0 1 5 4 2 3 4 13 3.59148001671
0 0 52 1 0.0 30.0 50.0 0 1 4 6 4 7 8 1.76467704773
0 0 53 0 60.0 50.0 40.0 1 7 6 5 3 8 12 5.10632610321
0 0 54 1 10.0 40.0 70.0 0 2 5 8 0 3 12 1.28773093224
0 0 55 0 20.0 10.0 0.0 1 3 2 1 7 10 12 10.2063949108
0 1 0 1 30.0 40.0 70.0 0 4 5 8 4 5 14 0.865910053253
0 1 1 0 70.0 10.0 0.0 1 8 2 1 5 7 13 0.887270212173
0 1 2 1 0.0 20.0 30.0 0 1 3 4 2 5 10 2.64715886116
0 1 3 1 20.0 30.0 70.0 0 3 4 8 3 4 7 3.09351491928
0 1 4 0 70.0 30.0 0.0 1 8 4 1 8 9 10 1.07380795479
0 1 5 0 20.0 50.0 70.0 0 3 6 8 1 2 4 9.68390989304
0 1 6 0 50.0 20.0 10.0 1 6 3 2 0 2 3 1.80558896065
0 1 7 0 10.0 50.0 60.0 0 2 6 7 5 7 9 2.48576402664
0 1 8 1 10.0 20.0 60.0 0 2 3 7 1 5 14 2.57037210464
0 1 9 0 0.0 60.0 70.0 0 1 7 8 2 6 12 1.8018040657
0 1 10 1 0.0 30.0 60.0 0 1 4 7 6 8 14 2.30927705765
0 1 11 1 20.0 40.0 60.0 0 3 5 7 1 3 9 6.21610808372
0 1 12 0 30.0 10.0 0.0 1 4 2 1 3 7 12 1.36660695076
0 1 13 0 70.0 50.0 40.0 1 8 6 5 0 12 13 3.24985694885
0 1 14 1 50.0 40.0 0.0 1 6 5 1 7 10 13 4.56695103645
0 1 15 0 70.0 20.0 0.0 1 8 3 1 8 12 13 1.97522091866
0 1 16 1 40.0 60.0 70.0 0 5 7 8 1 11 12 7.91658902168
0 1 17 0 60.0 10.0 0.0 1 7 2 1 0 3 9 2.70808982849
0 1 18 0 60.0 40.0 10.0 1 7 5 2 0 6 7 2.43297290802
0 1 19 1 50.0 60.0 70.0 0 6 7 8 4 12 13 6.45904707909
0 1 20 1 0.0 40.0 70.0 0 1 5 8 10 12 13 2.23975396156
0 1 21 0 60.0 40.0 30.0 1 7 5 4 2 10 11 6.17877316475
0 1 22 0 60.0 20.0 0.0 1 7 3 1 1 9 10 1.84263586998
0 1 23 1 60.0 50.0 0.0 1 7 6 1 7 10 12 13.4677431583
0 1 24 1 70.0 60.0 30.0 1 8 7 4 9 10 13 10.7963709831
0 1 25 1 10.0 30.0 50.0 0 2 4 6 0 3 10 2.13691806793
0 1 26 0 50.0 30.0 20.0 1 6 4 3 2 12 14 1.77000498772
0 1 27 1 0.0 20.0 40.0 0 1 3 5 5 9 13 1.98713302612
0 1 28 1 60.0 50.0 20.0 1 7 6 3 0 5 9 4.20570206642
0 1 29 1 70.0 60.0 20.0 1 8 7 3 4 10 14 3.75568199158
0 1 30 1 30.0 50.0 70.0 0 4 6 8 5 10 11 3.68312096596
0 1 31 0 10.0 60.0 70.0 0 2 7 8 0 1 3 6.41606402397
0 1 32 1 20.0 30.0 40.0 0 3 4 5 5 6 11 3.74702787399
0 1 33 0 40.0 20.0 10.0 1 5 3 2 1 2 12 1.74593901634
0 1 34 0 50.0 40.0 30.0 1 6 5 4 5 6 7 3.84526586533
0 1 35 0 50.0 20.0 0.0 1 6 3 1 4 5 8 1.74017000198
0 1 36 1 20.0 40.0 70.0 0 3 5 8 1 8 9 2.99945497513
0 1 37 0 10.0 40.0 50.0 0 2 5 6 3 11 14 16.1790997982
0 1 38 1 10.0 30.0 60.0 0 2 4 7 3 11 13 1.36477303505
0 1 39 1 10.0 20.0 70.0 0 2 3 8 0 3 14 1.90978908539
0 1 40 1 30.0 20.0 10.0 1 4 3 2 4 5 10 10.2630162239
0 1 41 1 20.0 30.0 60.0 0 3 4 7 1 4 12 1.25654006004
0 1 42 1 10.0 30.0 70.0 0 2 4 8 3 4 12 0.994063138962
0 1 43 1 0.0 40.0 60.0 0 1 5 7 9 10 11 4.8954501152
0 1 44 0 70.0 50.0 0.0 1 8 6 1 1 7 12 4.21971607208
0 1 45 1 40.0 30.0 0.0 1 5 4 1 6 10 14 7.02348804474
0 1 46 1 60.0 50.0 30.0 1 7 6 4 2 5 7 3.95151996613
0 1 47 1 70.0 50.0 10.0 1 8 6 2 1 2 5 11.2354490757
0 1 48 0 50.0 10.0 0.0 1 6 2 1 8 13 14 3.15287303925
0 1 49 1 0.0 10.0 40.0 0 1 2 5 4 6 11 1.40589094162
0 1 50 1 20.0 40.0 50.0 0 3 5 6 6 7 9 2.27884316444
0 1 51 0 40.0 30.0 10.0 1 5 4 2 2 6 10 5.49831104279
0 1 52 1 0.0 30.0 50.0 0 1 4 6 5 12 13 2.21447587013
0 1 53 0 60.0 50.0 40.0 1 7 6 5 11 13 14 3.90640521049
0 1 54 1 10.0 40.0 70.0 0 2 5 8 0 11 13 1.46979379654
0 1 55 0 20.0 10.0 0.0 1 3 2 1 4 6 9 10.6853749752
0 2 0 1 30.0 40.0 70.0 0 4 5 8 0 5 7 1.14272999763
0 2 1 0 70.0 10.0 0.0 1 8 2 1 6 11 14 1.28712201118
0 2 2 1 0.0 20.0 30.0 0 1 3 4 4 5 12 2.94107794762
0 2 3 1 20.0 30.0 70.0 0 3 4 8 3 11 13 2.45985007286
0 2 4 0 70.0 30.0 0.0 1 8 4 1 1 4 14 1.1417119503
0 2 5 1 20.0 50.0 70.0 0 3 6 8 1 13 14 3.57516312599
0 2 6 0 50.0 20.0 10.0 1 6 3 2 4 6 8 2.02392506599
0 2 7 1 10.0 50.0 60.0 0 2 6 7 0 3 7 19.9875259399
0 2 8 1 10.0 20.0 60.0 0 2 3 7 0 10 13 1.22723889351
0 2 9 0 0.0 60.0 70.0 0 1 7 8 6 9 13 1.50094604492
0 2 10 1 0.0 30.0 60.0 0 1 4 7 3 7 10 1.17596292496
0 2 11 1 20.0 40.0 60.0 0 3 5 7 1 2 8 1.15793395042
0 2 12 0 30.0 10.0 0.0 1 4 2 1 6 11 13 1.87724900246
0 2 13 0 70.0 50.0 40.0 1 8 6 5 0 1 13 4.98535704613
0 2 14 0 50.0 40.0 0.0 1 6 5 1 7 8 12 12.6463201046
0 2 15 0 70.0 20.0 0.0 1 8 3 1 1 9 10 1.59135103226
0 2 16 0 40.0 60.0 70.0 0 5 7 8 4 11 13 4.18706607819
0 2 17 0 60.0 10.0 0.0 1 7 2 1 5 11 14 1.14328503609
0 2 18 0 60.0 40.0 10.0 1 7 5 2 8 11 12 6.94100999832
0 2 19 1 50.0 60.0 70.0 0 6 7 8 3 7 13 6.43172383308
0 2 20 1 0.0 40.0 70.0 0 1 5 8 1 5 12 1.39013886452
0 2 21 0 60.0 40.0 30.0 1 7 5 4 3 9 14 18.8933501244
0 2 22 0 60.0 20.0 0.0 1 7 3 1 0 8 12 1.61868786812
0 2 23 1 60.0 50.0 0.0 1 7 6 1 2 6 14 5.86756801605
0 2 24 1 70.0 60.0 30.0 1 8 7 4 4 6 7 6.1506049633
0 2 25 1 10.0 30.0 50.0 0 2 4 6 2 9 13 3.15318107605
0 2 26 0 50.0 30.0 20.0 1 6 4 3 3 4 13 1.66076111794
0 2 27 1 0.0 20.0 40.0 0 1 3 5 5 6 7 1.84135007858
0 2 28 1 60.0 50.0 20.0 1 7 6 3 6 8 13 21.0759260654
0 2 29 1 70.0 60.0 20.0 1 8 7 3 2 9 12 12.4714281559
0 2 30 1 30.0 50.0 70.0 0 4 6 8 7 9 14 1.17777919769
0 2 31 0 10.0 60.0 70.0 0 2 7 8 4 8 12 2.04230117798
0 2 32 1 20.0 30.0 40.0 0 3 4 5 1 6 10 3.78823900223
0 2 33 0 40.0 20.0 10.0 1 5 3 2 4 9 12 2.20657896996
0 2 34 1 50.0 40.0 30.0 1 6 5 4 1 8 14 14.9637460709
0 2 35 0 50.0 20.0 0.0 1 6 3 1 0 2 3 2.03524398804
0 2 36 1 20.0 40.0 70.0 0 3 5 8 2 3 11 3.14973497391
0 2 37 1 10.0 40.0 50.0 0 2 5 6 1 6 12 14.8265550137
0 2 38 1 10.0 30.0 60.0 0 2 4 7 11 13 14 2.82176804543
0 2 39 1 10.0 20.0 70.0 0 2 3 8 0 3 9 5.14862704277
0 2 40 0 30.0 20.0 10.0 1 4 3 2 2 12 14 5.52645587921
0 2 41 1 20.0 30.0 60.0 0 3 4 7 0 2 9 2.79118013382
0 2 42 1 10.0 30.0 70.0 0 2 4 8 2 5 11 3.86987996101
0 2 43 0 0.0 40.0 60.0 0 1 5 7 0 2 6 5.86556196213
0 2 44 0 70.0 50.0 0.0 1 8 6 1 0 2 11 3.45577502251
0 2 45 0 40.0 30.0 0.0 1 5 4 1 0 9 13 3.15301203728
0 2 46 1 60.0 50.0 30.0 1 7 6 4 1 7 10 12.0478568077
0 2 47 0 70.0 50.0 10.0 1 8 6 2 0 4 14 8.88267707825
0 2 48 0 50.0 10.0 0.0 1 6 2 1 3 4 14 6.38800287247
0 2 49 1 0.0 10.0 40.0 0 1 2 5 1 2 12 3.1630461216
0 2 50 1 20.0 40.0 50.0 0 3 5 6 8 10 11 11.7017037868
0 2 51 0 40.0 30.0 10.0 1 5 4 2 0 6 10 9.03660488129
0 2 52 1 0.0 30.0 50.0 0 1 4 6 9 11 13 1.25871896744
0 2 53 0 60.0 50.0 40.0 1 7 6 5 0 5 11 4.08836913109
0 2 54 1 10.0 40.0 70.0 0 2 5 8 6 9 14 10.3374989033
0 2 55 0 20.0 10.0 0.0 1 3 2 1 8 10 12 15.6090898514
0 3 0 1 30.0 40.0 70.0 0 4 5 8 4 6 13 1.29245185852
0 3 1 0 70.0 10.0 0.0 1 8 2 1 7 12 13 1.35814285278
0 3 2 1 0.0 20.0 30.0 0 1 3 4 6 7 10 1.77065992355
0 3 3 1 20.0 30.0 70.0 0 3 4 8 2 9 14 1.36356711388
0 3 4 0 70.0 30.0 0.0 1 8 4 1 2 8 14 1.60984706879
0 3 5 1 20.0 50.0 70.0 0 3 6 8 11 12 13 21.284883976
0 3 6 0 50.0 20.0 10.0 1 6 3 2 4 5 7 1.4894797802
0 3 7 0 10.0 50.0 60.0 0 2 6 7 4 5 11 2.19352912903
0 3 8 1 10.0 20.0 60.0 0 2 3 7 1 2 9 1.80816102028
0 3 9 0 0.0 60.0 70.0 0 1 7 8 0 8 14 3.06878590584
0 3 10 1 0.0 30.0 60.0 0 1 4 7 10 11 12 4.75131392479
0 3 11 1 20.0 40.0 60.0 0 3 5 7 2 5 8 4.75306797028
0 3 12 0 30.0 10.0 0.0 1 4 2 1 5 7 10 6.25576806068
0 3 13 0 70.0 50.0 40.0 1 8 6 5 1 3 6 2.71460390091
0 3 14 1 50.0 40.0 0.0 1 6 5 1 1 3 5 7.73903799057
0 3 15 0 70.0 20.0 0.0 1 8 3 1 3 4 9 3.91788315773
0 3 16 0 40.0 60.0 70.0 0 5 7 8 2 9 12 7.17015004158
0 3 17 0 60.0 10.0 0.0 1 7 2 1 1 5 12 2.3443801403
0 3 18 0 60.0 40.0 10.0 1 7 5 2 1 6 10 20.0386288166
0 3 19 1 50.0 60.0 70.0 0 6 7 8 2 12 13 10.4758219719
0 3 20 1 0.0 40.0 70.0 0 1 5 8 6 7 14 4.63489699364
0 3 21 0 60.0 40.0 30.0 1 7 5 4 5 7 8 4.27806305885
0 3 22 0 60.0 20.0 0.0 1 7 3 1 5 11 13 1.65622591972
0 3 23 1 60.0 50.0 0.0 1 7 6 1 1 3 9 15.0468561649
0 3 24 1 70.0 60.0 30.0 1 8 7 4 0 9 12 2.41427516937
0 3 25 1 10.0 30.0 50.0 0 2 4 6 3 5 6 1.44022703171
0 3 26 0 50.0 30.0 20.0 1 6 4 3 9 12 13 1.61979293823
0 3 27 1 0.0 20.0 40.0 0 1 3 5 5 8 13 3.41236114502
0 3 28 1 60.0 50.0 20.0 1 7 6 3 0 5 14 10.8707480431
0 3 29 1 70.0 60.0 20.0 1 8 7 3 8 9 14 8.18140387535
0 3 30 0 30.0 50.0 70.0 0 4 6 8 5 7 11 7.470744133
0 3 31 0 10.0 60.0 70.0 0 2 7 8 2 9 10 7.48692512512
0 3 32 1 20.0 30.0 40.0 0 3 4 5 9 13 14 1.55344891548
0 3 33 0 40.0 20.0 10.0 1 5 3 2 3 5 7 1.51591706276
0 3 34 0 50.0 40.0 30.0 1 6 5 4 6 10 13 1.61654901505
0 3 35 0 50.0 20.0 0.0 1 6 3 1 1 10 12 1.77742981911
0 3 36 1 20.0 40.0 70.0 0 3 5 8 4 7 14 2.70883393288
0 3 37 1 10.0 40.0 50.0 0 2 5 6 5 6 10 10.216850996
0 3 38 1 10.0 30.0 60.0 0 2 4 7 3 8 12 2.09342193604
0 3 39 1 10.0 20.0 70.0 0 2 3 8 4 9 12 1.47179293633
0 3 40 0 30.0 20.0 10.0 1 4 3 2 2 7 13 10.5963799953
0 3 41 1 20.0 30.0 60.0 0 3 4 7 0 9 10 3.0129070282
0 3 42 1 10.0 30.0 70.0 0 2 4 8 1 5 7 1.87381505966
0 3 43 1 0.0 40.0 60.0 0 1 5 7 2 10 13 4.15667390823
0 3 44 0 70.0 50.0 0.0 1 8 6 1 0 8 11 6.56017422676
0 3 45 0 40.0 30.0 0.0 1 5 4 1 1 10 13 3.7072160244
0 3 46 1 60.0 50.0 30.0 1 7 6 4 8 9 12 8.0283639431
0 3 47 0 70.0 50.0 10.0 1 8 6 2 5 7 9 11.0876049995
0 3 48 0 50.0 10.0 0.0 1 6 2 1 8 10 13 2.27008509636
0 3 49 1 0.0 10.0 40.0 0 1 2 5 3 5 11 1.18227100372
0 3 50 1 20.0 40.0 50.0 0 3 5 6 1 2 7 2.75396800041
0 3 51 0 40.0 30.0 10.0 1 5 4 2 11 13 14 4.29010391235
0 3 52 1 0.0 30.0 50.0 0 1 4 6 2 8 13 2.6717839241
0 3 53 0 60.0 50.0 40.0 1 7 6 5 1 12 13 11.4677889347
0 3 54 1 10.0 40.0 70.0 0 2 5 8 1 6 11 2.59536290169
0 3 55 1 20.0 10.0 0.0 1 3 2 1 4 7 8 13.0605452061
0 4 0 1 30.0 40.0 70.0 0 4 5 8 2 8 12 2.3820772171
0 4 1 0 70.0 10.0 0.0 1 8 2 1 0 1 12 1.39525413513
0 4 2 1 0.0 20.0 30.0 0 1 3 4 1 2 9 1.36855006218
0 4 3 1 20.0 30.0 70.0 0 3 4 8 4 5 7 1.76473903656
0 4 4 0 70.0 30.0 0.0 1 8 4 1 3 4 11 1.32641601562
0 4 5 1 20.0 50.0 70.0 0 3 6 8 4 11 14 8.08575415611
0 4 6 0 50.0 20.0 10.0 1 6 3 2 2 10 13 1.15965008736
0 4 7 0 10.0 50.0 60.0 0 2 6 7 4 5 12 11.6329529285
0 4 8 1 10.0 20.0 60.0 0 2 3 7 8 10 12 2.18074989319
0 4 9 0 0.0 60.0 70.0 0 1 7 8 1 5 7 1.25233101845
0 4 10 1 0.0 30.0 60.0 0 1 4 7 2 3 10 1.32666397095
0 4 11 1 20.0 40.0 60.0 0 3 5 7 2 4 10 2.72354483604
0 4 12 0 30.0 10.0 0.0 1 4 2 1 1 8 12 4.3909330368
0 4 13 0 70.0 50.0 40.0 1 8 6 5 0 1 5 2.19301009178
0 4 14 0 50.0 40.0 0.0 1 6 5 1 0 7 12 7.1163380146
0 4 15 0 70.0 20.0 0.0 1 8 3 1 7 13 14 1.59844994545
0 4 16 0 40.0 60.0 70.0 0 5 7 8 5 8 12 3.14053893089
0 4 17 0 60.0 10.0 0.0 1 7 2 1 3 5 8 1.00000715256
0 4 18 0 60.0 40.0 10.0 1 7 5 2 9 11 12 7.41001987457
0 4 19 1 50.0 60.0 70.0 0 6 7 8 1 2 5 7.40420103073
0 4 20 1 0.0 40.0 70.0 0 1 5 8 2 8 11 3.42564606667
0 4 21 0 60.0 40.0 30.0 1 7 5 4 1 8 9 3.72757506371
0 4 22 0 60.0 20.0 0.0 1 7 3 1 1 3 9 1.4325940609
0 4 23 0 60.0 50.0 0.0 1 7 6 1 0 2 6 14.040004015
0 4 24 1 70.0 60.0 30.0 1 8 7 4 2 5 13 1.86625504494
0 4 25 1 10.0 30.0 50.0 0 2 4 6 2 4 7 1.27104306221
0 4 26 0 50.0 30.0 20.0 1 6 4 3 0 2 5 1.32726597786
0 4 27 1 0.0 20.0 40.0 0 1 3 5 1 10 12 1.4151031971
0 4 28 0 60.0 50.0 20.0 1 7 6 3 0 6 10 3.36327910423
0 4 29 1 70.0 60.0 20.0 1 8 7 3 0 4 10 7.46182990074
0 4 30 1 30.0 50.0 70.0 0 4 6 8 4 9 13 3.11348676682
0 4 31 0 10.0 60.0 70.0 0 2 7 8 1 4 5 4.5073299408
0 4 32 1 20.0 30.0 40.0 0 3 4 5 2 3 14 3.79764890671
0 4 33 0 40.0 20.0 10.0 1 5 3 2 3 7 9 1.77988910675
0 4 34 0 50.0 40.0 30.0 1 6 5 4 1 6 11 3.6043548584
0 4 35 0 50.0 20.0 0.0 1 6 3 1 2 12 14 1.39722585678
0 4 36 1 20.0 40.0 70.0 0 3 5 8 0 4 5 2.32193899155
0 4 37 0 10.0 40.0 50.0 0 2 5 6 0 1 14 4.56759619713
0 4 38 1 10.0 30.0 60.0 0 2 4 7 3 6 7 2.20713305473
0 4 39 1 10.0 20.0 70.0 0 2 3 8 7 12 14 1.1829020977
0 4 40 1 30.0 20.0 10.0 1 4 3 2 4 7 14 10.631606102
0 4 41 1 20.0 30.0 60.0 0 3 4 7 1 3 14 1.36725401878
0 4 42 1 10.0 30.0 70.0 0 2 4 8 2 5 12 0.84857416153
0 4 43 1 0.0 40.0 60.0 0 1 5 7 4 5 9 4.41675281525
0 4 44 0 70.0 50.0 0.0 1 8 6 1 4 12 13 3.86446094513
0 4 45 0 40.0 30.0 0.0 1 5 4 1 3 6 13 4.72206997871
0 4 46 1 60.0 50.0 30.0 1 7 6 4 3 7 8 10.7719159126
0 4 47 1 70.0 50.0 10.0 1 8 6 2 5 7 11 6.1502430439
0 4 48 0 50.0 10.0 0.0 1 6 2 1 8 9 12 1.94193577766
0 4 49 1 0.0 10.0 40.0 0 1 2 5 0 7 14 1.55118012428
0 4 50 1 20.0 40.0 50.0 0 3 5 6 0 12 13 2.96885704994
0 4 51 0 40.0 30.0 10.0 1 5 4 2 3 4 10 3.57377910614
0 4 52 1 0.0 30.0 50.0 0 1 4 6 3 10 12 0.886521100998
0 4 53 0 60.0 50.0 40.0 1 7 6 5 4 6 12 5.86950302124
0 4 54 1 10.0 40.0 70.0 0 2 5 8 1 3 10 0.960978031158
0 4 55 0 20.0 10.0 0.0 1 3 2 1 6 7 9 5.49530887604
0 5 0 1 30.0 40.0 70.0 0 4 5 8 2 9 14 1.07460188866
0 5 1 0 70.0 10.0 0.0 1 8 2 1 0 4 9 0.673240184784
0 5 2 1 0.0 20.0 30.0 0 1 3 4 3 4 5 1.44125390053
0 5 3 1 20.0 30.0 70.0 0 3 4 8 4 9 10 1.32802414894
0 5 4 0 70.0 30.0 0.0 1 8 4 1 1 13 14 1.0381629467
0 5 5 1 20.0 50.0 70.0 0 3 6 8 6 8 14 1.62034702301
0 5 6 0 50.0 20.0 10.0 1 6 3 2 3 4 11 1.25833392143
0 5 7 0 10.0 50.0 60.0 0 2 6 7 4 6 11 4.44825482368
0 5 8 1 10.0 20.0 60.0 0 2 3 7 2 6 7 1.47978401184
0 5 9 1 0.0 60.0 70.0 0 1 7 8 10 11 13 2.08415293694
0 5 10 1 0.0 30.0 60.0 0 1 4 7 1 4 5 1.36685013771
0 5 11 0 20.0 40.0 60.0 0 3 5 7 9 12 14 4.32987499237
0 5 12 0 30.0 10.0 0.0 1 4 2 1 0 4 7 1.58827590942
0 5 13 0 70.0 50.0 40.0 1 8 6 5 4 6 8 2.05916619301
0 5 14 0 50.0 40.0 0.0 1 6 5 1 2 3 10 1.59343385696
0 5 15 0 70.0 20.0 0.0 1 8 3 1 2 3 4 2.73823404312
0 5 16 0 40.0 60.0 70.0 0 5 7 8 5 13 14 2.05695605278
0 5 17 0 60.0 10.0 0.0 1 7 2 1 2 7 12 0.940630912781
0 5 18 0 60.0 40.0 10.0 1 7 5 2 2 13 14 2.12411808968
0 5 19 1 50.0 60.0 70.0 0 6 7 8 4 12 13 8.09005212784
0 5 20 1 0.0 40.0 70.0 0 1 5 8 1 5 12 3.97029900551
0 5 21 0 60.0 40.0 30.0 1 7 5 4 1 4 14 1.94277787209
0 5 22 0 60.0 20.0 0.0 1 7 3 1 0 10 11 1.33971905708
0 5 23 1 60.0 50.0 0.0 1 7 6 1 3 6 7 3.73237609863
0 5 24 1 70.0 60.0 30.0 1 8 7 4 10 11 12 13.2917160988
0 5 25 1 10.0 30.0 50.0 0 2 4 6 2 3 6 2.42413783073
0 5 26 0 50.0 30.0 20.0 1 6 4 3 2 9 12 1.2965490818
0 5 27 1 0.0 20.0 40.0 0 1 3 5 6 9 10 1.12043619156
0 5 28 1 60.0 50.0 20.0 1 7 6 3 0 5 13 3.56693100929
0 5 29 1 70.0 60.0 20.0 1 8 7 3 0 6 12 2.63116407394
0 5 30 1 30.0 50.0 70.0 0 4 6 8 1 8 12 2.53207707405
0 5 31 0 10.0 60.0 70.0 0 2 7 8 0 5 11 2.51793599129
0 5 32 1 20.0 30.0 40.0 0 3 4 5 1 7 10 1.38128590584
0 5 33 0 40.0 20.0 10.0 1 5 3 2 4 5 14 1.33622407913
0 5 34 0 50.0 40.0 30.0 1 6 5 4 2 3 7 2.02660393715
0 5 35 0 50.0 20.0 0.0 1 6 3 1 4 10 12 1.73102903366
0 5 36 1 20.0 40.0 70.0 0 3 5 8 2 7 11 1.17570114136
0 5 37 1 10.0 40.0 50.0 0 2 5 6 0 4 13 2.86218595505
0 5 38 1 10.0 30.0 60.0 0 2 4 7 2 4 11 1.50701403618
0 5 39 1 10.0 20.0 70.0 0 2 3 8 5 8 13 2.35605597496
0 5 40 0 30.0 20.0 10.0 1 4 3 2 6 11 12 3.75373196602
0 5 41 1 20.0 30.0 60.0 0 3 4 7 0 4 14 0.856266975403
0 5 42 1 10.0 30.0 70.0 0 2 4 8 1 12 13 0.961889028549
0 5 43 1 0.0 40.0 60.0 0 1 5 7 1 8 11 3.32123088837
0 5 44 0 70.0 50.0 0.0 1 8 6 1 1 2 5 3.32574510574
0 5 45 0 40.0 30.0 0.0 1 5 4 1 0 5 10 2.16842889786
0 5 46 1 60.0 50.0 30.0 1 7 6 4 4 6 7 1.81312799454
0 5 47 0 70.0 50.0 10.0 1 8 6 2 4 7 14 2.5568561554
0 5 48 0 50.0 10.0 0.0 1 6 2 1 1 2 13 2.53379297256
0 5 49 1 0.0 10.0 40.0 0 1 2 5 2 10 11 1.10962486267
0 5 50 1 20.0 40.0 50.0 0 3 5 6 6 8 10 1.87735295296
0 5 51 0 40.0 30.0 10.0 1 5 4 2 3 8 14 1.84190893173
0 5 52 1 0.0 30.0 50.0 0 1 4 6 3 13 14 1.33463096619
0 5 53 0 60.0 50.0 40.0 1 7 6 5 5 7 10 3.36581110954
0 5 54 1 10.0 40.0 70.0 0 2 5 8 5 9 14 0.997157096863
0 5 55 0 20.0 10.0 0.0 1 3 2 1 4 7 8 5.16657400131
0 6 0 1 30.0 40.0 70.0 0 4 5 8 8 11 13 1.07018303871
0 6 1 0 70.0 10.0 0.0 1 8 2 1 5 13 14 1.06512594223
0 6 2 1 0.0 20.0 30.0 0 1 3 4 8 9 13 1.18567800522
0 6 3 1 20.0 30.0 70.0 0 3 4 8 7 11 12 1.10867404938
0 6 4 0 70.0 30.0 0.0 1 8 4 1 2 13 14 1.75931286812
0 6 5 1 20.0 50.0 70.0 0 3 6 8 5 11 12 2.99255514145
0 6 6 0 50.0 20.0 10.0 1 6 3 2 2 3 10 1.78073191643
0 6 7 0 10.0 50.0 60.0 0 2 6 7 4 8 10 1.94885993004
0 6 8 1 10.0 20.0 60.0 0 2 3 7 4 11 12 2.78403878212
0 6 9 0 0.0 60.0 70.0 0 1 7 8 0 7 13 1.65885090828
0 6 10 1 0.0 30.0 60.0 0 1 4 7 7 9 13 2.92803001404
0 6 11 1 20.0 40.0 60.0 0 3 5 7 0 1 10 6.98548913002
0 6 12 0 30.0 10.0 0.0 1 4 2 1 8 10 14 2.46064209938
0 6 13 0 70.0 50.0 40.0 1 8 6 5 1 12 13 2.08073592186
0 6 14 0 50.0 40.0 0.0 1 6 5 1 3 4 11 3.16058707237
0 6 15 0 70.0 20.0 0.0 1 8 3 1 2 6 14 1.36646795273
0 6 16 0 40.0 60.0 70.0 0 5 7 8 0 9 14 7.41336297989
0 6 17 0 60.0 10.0 0.0 1 7 2 1 4 10 11 1.6886370182
0 6 18 0 60.0 40.0 10.0 1 7 5 2 3 8 14 1.98239398003
0 6 19 0 50.0 60.0 70.0 0 6 7 8 3 8 10 13.9150679111
0 6 20 1 0.0 40.0 70.0 0 1 5 8 1 3 4 2.8461420536
0 6 21 0 60.0 40.0 30.0 1 7 5 4 0 5 8 1.36963200569
0 6 22 0 60.0 20.0 0.0 1 7 3 1 7 8 11 2.46356296539
0 6 23 0 60.0 50.0 0.0 1 7 6 1 0 8 11 3.61193394661
0 6 24 1 70.0 60.0 30.0 1 8 7 4 3 6 11 3.96930599213
0 6 25 1 10.0 30.0 50.0 0 2 4 6 5 11 14 1.25588417053
0 6 26 0 50.0 30.0 20.0 1 6 4 3 2 12 14 1.55397391319
0 6 27 1 0.0 20.0 40.0 0 1 3 5 0 9 10 1.56125497818
0 6 28 1 60.0 50.0 20.0 1 7 6 3 3 4 6 7.64105200768
0 6 29 1 70.0 60.0 20.0 1 8 7 3 9 12 13 2.52109193802
0 6 30 1 30.0 50.0 70.0 0 4 6 8 1 4 9 3.24740195274
0 6 31 0 10.0 60.0 70.0 0 2 7 8 6 8 13 1.64687585831
0 6 32 1 20.0 30.0 40.0 0 3 4 5 1 10 14 4.22306990623
0 6 33 0 40.0 20.0 10.0 1 5 3 2 2 5 12 2.03854513168
0 6 34 0 50.0 40.0 30.0 1 6 5 4 2 11 12 2.67879605293
0 6 35 0 50.0 20.0 0.0 1 6 3 1 1 2 9 1.32950401306
0 6 36 1 20.0 40.0 70.0 0 3 5 8 3 8 13 1.95544314384
0 6 37 0 10.0 40.0 50.0 0 2 5 6 2 3 12 7.19611287117
0 6 38 1 10.0 30.0 60.0 0 2 4 7 7 9 11 6.06625986099
0 6 39 1 10.0 20.0 70.0 0 2 3 8 2 3 13 0.890341997147
0 6 40 0 30.0 20.0 10.0 1 4 3 2 3 4 5 6.10625505447
0 6 41 1 20.0 30.0 60.0 0 3 4 7 4 5 12 1.03388094902
0 6 42 1 10.0 30.0 70.0 0 2 4 8 3 6 12 0.962071180344
0 6 43 1 0.0 40.0 60.0 0 1 5 7 4 5 13 2.23508095741
0 6 44 0 70.0 50.0 0.0 1 8 6 1 5 10 12 3.6393661499
0 6 45 0 40.0 30.0 0.0 1 5 4 1 1 3 13 3.0064599514
0 6 46 0 60.0 50.0 30.0 1 7 6 4 1 4 14 6.53578305244
0 6 47 0 70.0 50.0 10.0 1 8 6 2 5 6 13 5.93324613571
0 6 48 0 50.0 10.0 0.0 1 6 2 1 5 6 14 2.92544603348
0 6 49 1 0.0 10.0 40.0 0 1 2 5 0 4 9 0.890269994736
0 6 50 0 20.0 40.0 50.0 0 3 5 6 4 9 12 9.47109293938
0 6 51 0 40.0 30.0 10.0 1 5 4 2 1 9 14 2.098539114
0 6 52 1 0.0 30.0 50.0 0 1 4 6 0 2 9 6.53712010384
0 6 53 0 60.0 50.0 40.0 1 7 6 5 0 2 8 1.81335997581
0 6 54 1 10.0 40.0 70.0 0 2 5 8 4 10 13 1.08209609985
0 6 55 1 20.0 10.0 0.0 1 3 2 1 0 3 4 5.75068497658
0 7 0 1 30.0 40.0 70.0 0 4 5 8 1 13 14 0.744574069977
0 7 1 0 70.0 10.0 0.0 1 8 2 1 3 9 12 0.887611150742
0 7 2 1 0.0 20.0 30.0 0 1 3 4 3 5 12 1.69751787186
0 7 3 1 20.0 30.0 70.0 0 3 4 8 8 10 11 1.01278495789
0 7 4 0 70.0 30.0 0.0 1 8 4 1 3 8 10 1.07016611099
0 7 5 1 20.0 50.0 70.0 0 3 6 8 0 7 12 3.98192811012
0 7 6 0 50.0 20.0 10.0 1 6 3 2 2 6 13 0.906781196594
0 7 7 0 10.0 50.0 60.0 0 2 6 7 9 10 14 4.27365994453
0 7 8 1 10.0 20.0 60.0 0 2 3 7 2 3 9 2.09614992142
0 7 9 0 0.0 60.0 70.0 0 1 7 8 0 5 14 2.87664484978
0 7 10 1 0.0 30.0 60.0 0 1 4 7 4 9 10 1.6545779705
0 7 11 1 20.0 40.0 60.0 0 3 5 7 6 8 12 9.73533296585
0 7 12 0 30.0 10.0 0.0 1 4 2 1 3 4 8 1.61746001244
0 7 13 0 70.0 50.0 40.0 1 8 6 5 0 2 4 2.30134892464
0 7 14 0 50.0 40.0 0.0 1 6 5 1 8 11 14 2.97533798218
0 7 15 0 70.0 20.0 0.0 1 8 3 1 0 3 14 1.32091116905
0 7 16 0 40.0 60.0 70.0 0 5 7 8 0 7 9 1.11476302147
0 7 17 0 60.0 10.0 0.0 1 7 2 1 4 7 9 0.994138002396
0 7 18 0 60.0 40.0 10.0 1 7 5 2 2 5 13 2.25326895714
0 7 19 1 50.0 60.0 70.0 0 6 7 8 4 6 13 5.66276502609
0 7 20 1 0.0 40.0 70.0 0 1 5 8 0 13 14 2.70145916939
0 7 21 0 60.0 40.0 30.0 1 7 5 4 1 11 13 1.80561494827
0 7 22 0 60.0 20.0 0.0 1 7 3 1 0 2 9 1.91090512276
0 7 23 1 60.0 50.0 0.0 1 7 6 1 1 2 11 1.35567092896
0 7 24 1 70.0 60.0 30.0 1 8 7 4 0 5 12 7.05309700966
0 7 25 1 10.0 30.0 50.0 0 2 4 6 0 2 13 2.63834500313
0 7 26 0 50.0 30.0 20.0 1 6 4 3 1 6 8 2.18733000755
0 7 27 1 0.0 20.0 40.0 0 1 3 5 0 8 13 2.71340608597
0 7 28 1 60.0 50.0 20.0 1 7 6 3 2 11 13 4.89369797707
0 7 29 1 70.0 60.0 20.0 1 8 7 3 1 7 10 1.77069997787
0 7 30 0 30.0 50.0 70.0 0 4 6 8 6 7 13 1.82718300819
0 7 31 0 10.0 60.0 70.0 0 2 7 8 2 5 11 1.8646299839
0 7 32 1 20.0 30.0 40.0 0 3 4 5 1 9 12 14.7434620857
0 7 33 0 40.0 20.0 10.0 1 5 3 2 5 13 14 1.84393215179
0 7 34 0 50.0 40.0 30.0 1 6 5 4 10 12 13 13.0708158016
0 7 35 0 50.0 20.0 0.0 1 6 3 1 1 4 5 1.91214585304
0 7 36 1 20.0 40.0 70.0 0 3 5 8 2 3 5 2.81279993057
0 7 37 1 10.0 40.0 50.0 0 2 5 6 4 10 14 7.4879360199
0 7 38 1 10.0 30.0 60.0 0 2 4 7 0 6 13 1.40603399277
0 7 39 1 10.0 20.0 70.0 0 2 3 8 1 10 13 1.03105783463
0 7 40 0 30.0 20.0 10.0 1 4 3 2 2 6 11 8.83603096008
0 7 41 1 20.0 30.0 60.0 0 3 4 7 0 5 6 1.03827905655
0 7 42 1 10.0 30.0 70.0 0 2 4 8 3 10 11 0.888819932938
0 7 43 1 0.0 40.0 60.0 0 1 5 7 5 8 11 2.23377895355
0 7 44 0 70.0 50.0 0.0 1 8 6 1 0 11 14 2.37283706665
0 7 45 0 40.0 30.0 0.0 1 5 4 1 6 10 11 5.23609304428
0 7 46 0 60.0 50.0 30.0 1 7 6 4 0 8 12 3.43691396713
0 7 47 0 70.0 50.0 10.0 1 8 6 2 1 7 12 1.94451999664
0 7 48 0 50.0 10.0 0.0 1 6 2 1 9 11 13 1.18555879593
0 7 49 1 0.0 10.0 40.0 0 1 2 5 1 4 14 1.6680970192
0 7 50 0 20.0 40.0 50.0 0 3 5 6 2 8 14 12.1345858574
0 7 51 0 40.0 30.0 10.0 1 5 4 2 5 7 13 2.72320604324
0 7 52 1 0.0 30.0 50.0 0 1 4 6 1 6 9 1.10889697075
0 7 53 0 60.0 50.0 40.0 1 7 6 5 2 5 6 6.30080413818
0 7 54 1 10.0 40.0 70.0 0 2 5 8 2 6 12 1.03333997726
0 7 55 0 20.0 10.0 0.0 1 3 2 1 5 7 8 4.8017039299
0 8 0 1 30.0 40.0 70.0 0 4 5 8 0 6 13 1.18013811111
0 8 1 0 70.0 10.0 0.0 1 8 2 1 3 9 10 1.14508605003
0 8 2 1 0.0 20.0 30.0 0 1 3 4 0 6 14 1.22176098824
0 8 3 1 20.0 30.0 70.0 0 3 4 8 9 10 11 1.03608202934
0 8 4 0 70.0 30.0 0.0 1 8 4 1 6 7 9 1.32357406616
0 8 5 0 20.0 50.0 70.0 0 3 6 8 4 7 14 5.75983405113
0 8 6 0 50.0 20.0 10.0 1 6 3 2 1 2 14 1.05021214485
0 8 7 0 10.0 50.0 60.0 0 2 6 7 2 9 14 1.39907503128
0 8 8 1 10.0 20.0 60.0 0 2 3 7 10 11 13 1.22061610222
0 8 9 0 0.0 60.0 70.0 0 1 7 8 8 9 10 0.957914113998
0 8 10 1 0.0 30.0 60.0 0 1 4 7 3 6 10 3.18824291229
0 8 11 1 20.0 40.0 60.0 0 3 5 7 1 3 10 3.3239979744
0 8 12 0 30.0 10.0 0.0 1 4 2 1 2 6 11 4.65164399147
0 8 13 0 70.0 50.0 40.0 1 8 6 5 5 13 14 3.35856604576
0 8 14 1 50.0 40.0 0.0 1 6 5 1 2 10 12 2.74604701996
0 8 15 0 70.0 20.0 0.0 1 8 3 1 4 5 8 1.43745303154
0 8 16 0 40.0 60.0 70.0 0 5 7 8 4 9 10 2.33531308174
0 8 17 0 60.0 10.0 0.0 1 7 2 1 4 6 8 1.25818896294
0 8 18 0 60.0 40.0 10.0 1 7 5 2 2 11 13 2.94406223297
0 8 19 1 50.0 60.0 70.0 0 6 7 8 2 5 8 5.80744194984
0 8 20 1 0.0 40.0 70.0 0 1 5 8 4 8 13 1.68030500412
0 8 21 0 60.0 40.0 30.0 1 7 5 4 0 9 13 2.63967299461
0 8 22 0 60.0 20.0 0.0 1 7 3 1 2 4 14 1.87551784515
0 8 23 1 60.0 50.0 0.0 1 7 6 1 0 9 12 3.28529906273
0 8 24 1 70.0 60.0 30.0 1 8 7 4 1 7 14 6.98554992676
0 8 25 1 10.0 30.0 50.0 0 2 4 6 0 4 10 1.11142897606
0 8 26 0 50.0 30.0 20.0 1 6 4 3 0 7 10 1.04040002823
0 8 27 1 0.0 20.0 40.0 0 1 3 5 6 9 11 1.40819191933
0 8 28 1 60.0 50.0 20.0 1 7 6 3 0 7 9 4.74763393402
0 8 29 1 70.0 60.0 20.0 1 8 7 3 3 5 12 3.1875770092
0 8 30 1 30.0 50.0 70.0 0 4 6 8 1 3 9 2.15332198143
0 8 31 0 10.0 60.0 70.0 0 2 7 8 0 9 11 1.24948310852
0 8 32 1 20.0 30.0 40.0 0 3 4 5 0 5 14 4.00416398048
0 8 33 0 40.0 20.0 10.0 1 5 3 2 0 6 7 1.26010894775
0 8 34 0 50.0 40.0 30.0 1 6 5 4 0 10 13 4.70230102539
0 8 35 0 50.0 20.0 0.0 1 6 3 1 5 6 7 3.91962003708
0 8 36 1 20.0 40.0 70.0 0 3 5 8 6 7 10 1.1029689312
0 8 37 0 10.0 40.0 50.0 0 2 5 6 2 3 12 2.91901302338
0 8 38 1 10.0 30.0 60.0 0 2 4 7 10 12 14 3.40101695061
0 8 39 1 10.0 20.0 70.0 0 2 3 8 5 8 11 1.37731099129
0 8 40 0 30.0 20.0 10.0 1 4 3 2 6 7 12 6.965031147
0 8 41 1 20.0 30.0 60.0 0 3 4 7 2 6 13 1.25683498383
0 8 42 1 10.0 30.0 70.0 0 2 4 8 7 11 12 1.57612609863
0 8 43 1 0.0 40.0 60.0 0 1 5 7 3 5 11 2.52462983131
0 8 44 1 70.0 50.0 0.0 1 8 6 1 2 4 6 1.8639819622
0 8 45 0 40.0 30.0 0.0 1 5 4 1 8 9 14 8.16238594055
0 8 46 1 60.0 50.0 30.0 1 7 6 4 0 1 5 1.65853881836
0 8 47 0 70.0 50.0 10.0 1 8 6 2 6 10 13 2.45912599564
0 8 48 0 50.0 10.0 0.0 1 6 2 1 2 7 10 1.18102502823
0 8 49 1 0.0 10.0 40.0 0 1 2 5 4 7 10 0.926995992661
0 8 50 0 20.0 40.0 50.0 0 3 5 6 3 6 9 5.49933195114
0 8 51 0 40.0 30.0 10.0 1 5 4 2 5 8 13 6.26199007034
0 8 52 1 0.0 30.0 50.0 0 1 4 6 7 11 13 1.21890592575
0 8 53 1 60.0 50.0 40.0 1 7 6 5 0 3 8 1.28900408745
0 8 54 1 10.0 40.0 70.0 0 2 5 8 0 5 6 2.91834998131
0 8 55 1 20.0 10.0 0.0 1 3 2 1 0 2 8 14.0055191517
0 9 0 1 30.0 40.0 70.0 0 4 5 8 5 6 12 0.88987994194
0 9 1 0 70.0 10.0 0.0 1 8 2 1 3 7 9 0.955431938171
0 9 2 1 0.0 20.0 30.0 0 1 3 4 5 10 13 1.38237500191
0 9 3 1 20.0 30.0 70.0 0 3 4 8 0 9 13 0.849015951157
0 9 4 0 70.0 30.0 0.0 1 8 4 1 1 11 13 0.928057909012
0 9 5 1 20.0 50.0 70.0 0 3 6 8 5 9 12 1.6475071907
0 9 6 0 50.0 20.0 10.0 1 6 3 2 2 7 13 1.76904702187
0 9 7 0 10.0 50.0 60.0 0 2 6 7 6 9 13 1.5430598259
0 9 8 1 10.0 20.0 60.0 0 2 3 7 5 10 14 1.66905522346
0 9 9 0 0.0 60.0 70.0 0 1 7 8 5 7 12 1.06629800797
0 9 10 1 0.0 30.0 60.0 0 1 4 7 0 5 8 2.45976209641
0 9 11 1 20.0 40.0 60.0 0 3 5 7 10 13 14 2.23705410957
0 9 12 0 30.0 10.0 0.0 1 4 2 1 0 13 14 3.33212280273
0 9 13 0 70.0 50.0 40.0 1 8 6 5 4 10 13 4.51402401924
0 9 14 1 50.0 40.0 0.0 1 6 5 1 8 9 10 5.14854598045
0 9 15 0 70.0 20.0 0.0 1 8 3 1 0 6 7 1.54280495644
0 9 16 0 40.0 60.0 70.0 0 5 7 8 7 11 12 1.07961893082
0 9 17 0 60.0 10.0 0.0 1 7 2 1 1 10 14 1.84384417534
0 9 18 0 60.0 40.0 10.0 1 7 5 2 8 10 12 2.7835059166
0 9 19 0 50.0 60.0 70.0 0 6 7 8 0 7 10 1.1032781601
0 9 20 1 0.0 40.0 70.0 0 1 5 8 2 6 11 3.09999203682
0 9 21 0 60.0 40.0 30.0 1 7 5 4 5 7 13 2.82559609413
0 9 22 0 60.0 20.0 0.0 1 7 3 1 4 12 13 1.76648402214
0 9 23 1 60.0 50.0 0.0 1 7 6 1 1 8 13 2.19939208031
0 9 24 1 70.0 60.0 30.0 1 8 7 4 8 11 12 3.31298708916
0 9 25 1 10.0 30.0 50.0 0 2 4 6 0 4 6 2.75650215149
0 9 26 0 50.0 30.0 20.0 1 6 4 3 0 11 12 4.65339803696
0 9 27 1 0.0 20.0 40.0 0 1 3 5 3 6 10 1.88229107857
0 9 28 1 60.0 50.0 20.0 1 7 6 3 6 9 14 6.67712211609
0 9 29 1 70.0 60.0 20.0 1 8 7 3 2 5 10 3.63027000427
0 9 30 1 30.0 50.0 70.0 0 4 6 8 3 10 13 3.42955112457
0 9 31 0 10.0 60.0 70.0 0 2 7 8 2 3 13 1.35442018509
0 9 32 1 20.0 30.0 40.0 0 3 4 5 5 13 14 1.93732595444
0 9 33 0 40.0 20.0 10.0 1 5 3 2 0 3 8 2.98600506783
0 9 34 0 50.0 40.0 30.0 1 6 5 4 4 5 13 7.97260403633
0 9 35 0 50.0 20.0 0.0 1 6 3 1 4 6 13 2.86187410355
0 9 36 1 20.0 40.0 70.0 0 3 5 8 1 2 6 1.3625459671
0 9 37 0 10.0 40.0 50.0 0 2 5 6 1 3 9 6.86893391609
0 9 38 1 10.0 30.0 60.0 0 2 4 7 3 8 14 1.83904695511
0 9 39 1 10.0 20.0 70.0 0 2 3 8 6 13 14 1.2495341301
0 9 40 1 30.0 20.0 10.0 1 4 3 2 3 8 10 12.8257818222
0 9 41 1 20.0 30.0 60.0 0 3 4 7 2 6 13 1.03885102272
0 9 42 1 10.0 30.0 70.0 0 2 4 8 3 12 13 1.54346299171
0 9 43 1 0.0 40.0 60.0 0 1 5 7 0 5 6 2.12965703011
0 9 44 0 70.0 50.0 0.0 1 8 6 1 0 2 8 4.79525589943
0 9 45 0 40.0 30.0 0.0 1 5 4 1 4 5 9 1.62391591072
0 9 46 1 60.0 50.0 30.0 1 7 6 4 0 4 12 1.32667994499
0 9 47 1 70.0 50.0 10.0 1 8 6 2 10 11 13 3.49398493767
0 9 48 0 50.0 10.0 0.0 1 6 2 1 5 6 13 3.36675190926
0 9 49 1 0.0 10.0 40.0 0 1 2 5 6 7 9 1.3237349987
0 9 50 1 20.0 40.0 50.0 0 3 5 6 0 1 14 4.52059197426
0 9 51 0 40.0 30.0 10.0 1 5 4 2 6 11 12 4.47166490555
0 9 52 1 0.0 30.0 50.0 0 1 4 6 6 7 13 3.44078683853
0 9 53 1 60.0 50.0 40.0 1 7 6 5 3 6 9 3.8336019516
0 9 54 1 10.0 40.0 70.0 0 2 5 8 3 5 13 2.34099602699
0 9 55 0 20.0 10.0 0.0 1 3 2 1 1 3 12 9.61828112602
0 10 0 1 30.0 40.0 70.0 0 4 5 8 0 1 2 1.36128902435
0 10 1 0 70.0 10.0 0.0 1 8 2 1 1 2 12 1.35948491096
0 10 2 1 0.0 20.0 30.0 0 1 3 4 0 1 9 3.48423910141
0 10 3 1 20.0 30.0 70.0 0 3 4 8 0 7 10 1.61445903778
0 10 4 0 70.0 30.0 0.0 1 8 4 1 6 9 14 0.892698049545
0 10 5 0 20.0 50.0 70.0 0 3 6 8 8 11 12 1.99282598495
0 10 6 0 50.0 20.0 10.0 1 6 3 2 1 3 5 2.18215584755
0 10 7 0 10.0 50.0 60.0 0 2 6 7 1 4 13 1.12155413628
0 10 8 1 10.0 20.0 60.0 0 2 3 7 1 5 14 1.21604800224
0 10 9 0 0.0 60.0 70.0 0 1 7 8 4 8 12 2.50905489922
0 10 10 1 0.0 30.0 60.0 0 1 4 7 0 4 8 1.69107484818
0 10 11 1 20.0 40.0 60.0 0 3 5 7 10 12 13 1.76656484604
0 10 12 0 30.0 10.0 0.0 1 4 2 1 5 12 14 3.77529597282
0 10 13 0 70.0 50.0 40.0 1 8 6 5 5 11 12 2.66417098045
0 10 14 1 50.0 40.0 0.0 1 6 5 1 2 10 11 1.21683001518
0 10 15 0 70.0 20.0 0.0 1 8 3 1 1 8 13 3.25164008141
0 10 16 0 40.0 60.0 70.0 0 5 7 8 1 4 14 1.03084278107
0 10 17 0 60.0 10.0 0.0 1 7 2 1 6 7 10 1.03932905197
0 10 18 0 60.0 40.0 10.0 1 7 5 2 3 4 10 3.03780198097
0 10 19 0 50.0 60.0 70.0 0 6 7 8 1 9 12 1.47815084457
0 10 20 1 0.0 40.0 70.0 0 1 5 8 0 3 8 3.0351729393
0 10 21 0 60.0 40.0 30.0 1 7 5 4 2 6 8 3.73665785789
0 10 22 0 60.0 20.0 0.0 1 7 3 1 0 2 13 1.18185710907
0 10 23 1 60.0 50.0 0.0 1 7 6 1 9 11 12 2.01393413544
0 10 24 1 70.0 60.0 30.0 1 8 7 4 3 4 9 1.72108387947
0 10 25 1 10.0 30.0 50.0 0 2 4 6 6 12 13 1.76256990433
0 10 26 0 50.0 30.0 20.0 1 6 4 3 6 10 11 1.44124412537
0 10 27 1 0.0 20.0 40.0 0 1 3 5 3 8 12 3.55803084373
0 10 28 1 60.0 50.0 20.0 1 7 6 3 6 7 9 5.22581005096
0 10 29 1 70.0 60.0 20.0 1 8 7 3 2 5 9 1.61791396141
0 10 30 1 30.0 50.0 70.0 0 4 6 8 0 1 5 7.10623407364
0 10 31 0 10.0 60.0 70.0 0 2 7 8 2 7 11 1.14073991776
0 10 32 1 20.0 30.0 40.0 0 3 4 5 0 10 14 2.04031085968
0 10 33 0 40.0 20.0 10.0 1 5 3 2 5 7 8 3.52567815781
0 10 34 1 50.0 40.0 30.0 1 6 5 4 1 6 10 6.32446813583
0 10 35 0 50.0 20.0 0.0 1 6 3 1 5 8 9 1.21937990189
0 10 36 1 20.0 40.0 70.0 0 3 5 8 6 9 12 1.47208380699
0 10 37 0 10.0 40.0 50.0 0 2 5 6 0 11 14 4.5536699295
0 10 38 1 10.0 30.0 60.0 0 2 4 7 3 11 13 2.49837493896
0 10 39 1 10.0 20.0 70.0 0 2 3 8 2 9 10 1.14799284935
0 10 40 1 30.0 20.0 10.0 1 4 3 2 1 11 14 10.0129351616
0 10 41 1 20.0 30.0 60.0 0 3 4 7 0 5 8 1.26898789406
0 10 42 1 10.0 30.0 70.0 0 2 4 8 6 8 9 1.43504285812
0 10 43 1 0.0 40.0 60.0 0 1 5 7 5 10 14 5.97118401527
0 10 44 0 70.0 50.0 0.0 1 8 6 1 4 6 9 2.36533117294
0 10 45 0 40.0 30.0 0.0 1 5 4 1 0 2 8 1.87709188461
0 10 46 1 60.0 50.0 30.0 1 7 6 4 1 2 11 3.18231916428
0 10 47 0 70.0 50.0 10.0 1 8 6 2 3 5 8 1.76447701454
0 10 48 0 50.0 10.0 0.0 1 6 2 1 12 13 14 1.77802109718
0 10 49 1 0.0 10.0 40.0 0 1 2 5 10 11 13 1.07377576828
0 10 50 1 20.0 40.0 50.0 0 3 5 6 2 4 5 2.38848209381
0 10 51 0 40.0 30.0 10.0 1 5 4 2 0 2 14 2.71937298775
0 10 52 1 0.0 30.0 50.0 0 1 4 6 2 9 11 0.936038017273
0 10 53 0 60.0 50.0 40.0 1 7 6 5 0 9 10 7.97343015671
0 10 54 1 10.0 40.0 70.0 0 2 5 8 3 7 10 1.38749718666
0 10 55 1 20.0 10.0 0.0 1 3 2 1 2 3 14 2.02221393585
0 11 0 1 30.0 40.0 70.0 0 4 5 8 5 7 11 1.57511091232
0 11 1 0 70.0 10.0 0.0 1 8 2 1 3 12 13 0.740952014923
0 11 2 1 0.0 20.0 30.0 0 1 3 4 2 8 12 1.01648807526
0 11 3 1 20.0 30.0 70.0 0 3 4 8 8 11 12 1.4323990345
0 11 4 0 70.0 30.0 0.0 1 8 4 1 0 3 13 0.971940994263
0 11 5 1 20.0 50.0 70.0 0 3 6 8 3 9 14 2.67829179764
0 11 6 0 50.0 20.0 10.0 1 6 3 2 6 7 8 1.11701393127
0 11 7 0 10.0 50.0 60.0 0 2 6 7 3 6 13 1.53844881058
0 11 8 1 10.0 20.0 60.0 0 2 3 7 4 10 12 1.96434903145
0 11 9 0 0.0 60.0 70.0 0 1 7 8 7 11 13 0.921669960022
0 11 10 1 0.0 30.0 60.0 0 1 4 7 1 7 12 1.61835217476
0 11 11 1 20.0 40.0 60.0 0 3 5 7 9 12 13 1.03737211227
0 11 12 0 30.0 10.0 0.0 1 4 2 1 5 13 14 1.99754500389
0 11 13 0 70.0 50.0 40.0 1 8 6 5 5 11 14 3.07039284706
0 11 14 0 50.0 40.0 0.0 1 6 5 1 0 9 14 2.70878005028
0 11 15 0 70.0 20.0 0.0 1 8 3 1 1 11 14 0.847486972809
0 11 16 0 40.0 60.0 70.0 0 5 7 8 4 8 12 4.43671393394
0 11 17 0 60.0 10.0 0.0 1 7 2 1 2 11 13 1.44056820869
0 11 18 0 60.0 40.0 10.0 1 7 5 2 5 8 11 2.96540808678
0 11 19 0 50.0 60.0 70.0 0 6 7 8 0 6 11 3.60521388054
0 11 20 1 0.0 40.0 70.0 0 1 5 8 2 3 14 2.71212506294
0 11 21 0 60.0 40.0 30.0 1 7 5 4 3 5 14 1.61876606941
0 11 22 0 60.0 20.0 0.0 1 7 3 1 4 12 13 0.904824018478
0 11 23 1 60.0 50.0 0.0 1 7 6 1 4 6 14 6.55342102051
0 11 24 1 70.0 60.0 30.0 1 8 7 4 8 10 13 1.32576704025
0 11 25 1 10.0 30.0 50.0 0 2 4 6 7 11 12 3.41252493858
0 11 26 0 50.0 30.0 20.0 1 6 4 3 2 4 13 3.01271700859
0 11 27 1 0.0 20.0 40.0 0 1 3 5 0 6 7 0.928438901901
0 11 28 1 60.0 50.0 20.0 1 7 6 3 2 4 8 10.8008570671
0 11 29 1 70.0 60.0 20.0 1 8 7 3 1 4 9 3.06984686852
0 11 30 1 30.0 50.0 70.0 0 4 6 8 8 9 14 2.81191587448
0 11 31 0 10.0 60.0 70.0 0 2 7 8 2 7 12 0.922769069672
0 11 32 1 20.0 30.0 40.0 0 3 4 5 3 9 13 1.88582801819
0 11 33 0 40.0 20.0 10.0 1 5 3 2 12 13 14 1.43742203712
0 11 34 0 50.0 40.0 30.0 1 6 5 4 0 8 14 1.54725313187
0 11 35 0 50.0 20.0 0.0 1 6 3 1 0 10 12 2.09552502632
0 11 36 1 20.0 40.0 70.0 0 3 5 8 0 1 4 0.940364837646
0 11 37 0 10.0 40.0 50.0 0 2 5 6 8 9 10 4.86014485359
0 11 38 1 10.0 30.0 60.0 0 2 4 7 2 6 13 1.74032616615
0 11 39 1 10.0 20.0 70.0 0 2 3 8 0 3 12 1.27338290215
0 11 40 0 30.0 20.0 10.0 1 4 3 2 1 7 11 3.3420419693
0 11 41 1 20.0 30.0 60.0 0 3 4 7 6 7 12 1.3987300396
0 11 42 1 10.0 30.0 70.0 0 2 4 8 0 5 10 1.11834692955
0 11 43 1 0.0 40.0 60.0 0 1 5 7 7 9 14 2.06430888176
0 11 44 0 70.0 50.0 0.0 1 8 6 1 2 3 12 9.04498100281
0 11 45 0 40.0 30.0 0.0 1 5 4 1 5 10 12 1.36601114273
0 11 46 1 60.0 50.0 30.0 1 7 6 4 8 11 14 1.25894093513
0 11 47 1 70.0 50.0 10.0 1 8 6 2 0 2 5 2.12057805061
0 11 48 0 50.0 10.0 0.0 1 6 2 1 0 7 14 1.90946507454
0 11 49 1 0.0 10.0 40.0 0 1 2 5 0 2 3 1.32411384583
0 11 50 0 20.0 40.0 50.0 0 3 5 6 3 8 9 6.5871078968
0 11 51 0 40.0 30.0 10.0 1 5 4 2 0 11 12 2.02057504654
0 11 52 1 0.0 30.0 50.0 0 1 4 6 0 1 3 0.9273250103
0 11 53 0 60.0 50.0 40.0 1 7 6 5 4 5 11 4.20233201981
0 11 54 1 10.0 40.0 70.0 0 2 5 8 2 12 14 1.07343316078
0 11 55 0 20.0 10.0 0.0 1 3 2 1 1 6 9 1.75739598274
0 12 0 1 30.0 40.0 70.0 0 4 5 8 2 10 14 1.04978394508
0 12 1 0 70.0 10.0 0.0 1 8 2 1 7 8 13 0.717476129532
0 12 2 1 0.0 20.0 30.0 0 1 3 4 2 3 10 1.29050397873
0 12 3 1 20.0 30.0 70.0 0 3 4 8 0 2 12 0.820715904236
0 12 4 0 70.0 30.0 0.0 1 8 4 1 4 10 11 0.820230960846
0 12 5 0 20.0 50.0 70.0 0 3 6 8 2 13 14 4.26961612701
0 12 6 0 50.0 20.0 10.0 1 6 3 2 0 5 6 1.05031490326
0 12 7 0 10.0 50.0 60.0 0 2 6 7 3 6 10 0.961004018784
0 12 8 1 10.0 20.0 60.0 0 2 3 7 4 5 9 1.36586093903
0 12 9 0 0.0 60.0 70.0 0 1 7 8 3 4 11 0.885546922684
0 12 10 1 0.0 30.0 60.0 0 1 4 7 3 6 14 1.43086504936
0 12 11 0 20.0 40.0 60.0 0 3 5 7 4 10 12 1.58373308182
0 12 12 0 30.0 10.0 0.0 1 4 2 1 5 6 11 4.02609705925
0 12 13 0 70.0 50.0 40.0 1 8 6 5 0 12 14 1.86215996742
0 12 14 0 50.0 40.0 0.0 1 6 5 1 1 4 10 3.94801092148
0 12 15 0 70.0 20.0 0.0 1 8 3 1 1 8 12 0.59938788414
0 12 16 0 40.0 60.0 70.0 0 5 7 8 0 5 14 0.992429971695
0 12 17 0 60.0 10.0 0.0 1 7 2 1 0 2 11 0.902992963791
0 12 18 0 60.0 40.0 10.0 1 7 5 2 6 11 13 5.87717890739
0 12 19 0 50.0 60.0 70.0 0 6 7 8 1 3 14 1.74844408035
0 12 20 1 0.0 40.0 70.0 0 1 5 8 8 13 14 2.11568021774
0 12 21 0 60.0 40.0 30.0 1 7 5 4 1 2 6 1.65253806114
0 12 22 0 60.0 20.0 0.0 1 7 3 1 9 10 13 1.40543603897
0 12 23 0 60.0 50.0 0.0 1 7 6 1 8 11 14 1.32423114777
0 12 24 1 70.0 60.0 30.0 1 8 7 4 1 2 14 1.24914288521
0 12 25 1 10.0 30.0 50.0 0 2 4 6 1 3 12 1.80958199501
0 12 26 0 50.0 30.0 20.0 1 6 4 3 4 9 11 0.892809152603
0 12 27 1 0.0 20.0 40.0 0 1 3 5 1 9 14 1.89937806129
0 12 28 1 60.0 50.0 20.0 1 7 6 3 11 12 14 1.79758810997
0 12 29 1 70.0 60.0 20.0 1 8 7 3 0 5 13 2.42442202568
0 12 30 1 30.0 50.0 70.0 0 4 6 8 3 7 14 3.10262322426
0 12 31 0 10.0 60.0 70.0 0 2 7 8 0 4 7 1.72001099586
0 12 32 0 20.0 30.0 40.0 0 3 4 5 4 11 13 1.77236795425
0 12 33 0 40.0 20.0 10.0 1 5 3 2 4 12 13 1.21916699409
0 12 34 0 50.0 40.0 30.0 1 6 5 4 0 2 5 2.31368279457
0 12 35 0 50.0 20.0 0.0 1 6 3 1 4 8 9 1.15908002853
0 12 36 1 20.0 40.0 70.0 0 3 5 8 5 7 12 1.13993501663
0 12 37 1 10.0 40.0 50.0 0 2 5 6 0 2 7 1.57919001579
0 12 38 1 10.0 30.0 60.0 0 2 4 7 0 9 10 1.72900605202
0 12 39 1 10.0 20.0 70.0 0 2 3 8 0 3 14 2.16276812553
0 12 40 1 30.0 20.0 10.0 1 4 3 2 4 12 14 3.85392212868
0 12 41 1 20.0 30.0 60.0 0 3 4 7 2 12 13 1.14816117287
0 12 42 1 10.0 30.0 70.0 0 2 4 8 1 12 14 1.17946195602
0 12 43 1 0.0 40.0 60.0 0 1 5 7 1 2 11 1.58002090454
0 12 44 0 70.0 50.0 0.0 1 8 6 1 2 6 14 3.71305513382
0 12 45 1 40.0 30.0 0.0 1 5 4 1 4 8 12 4.86652421951
0 12 46 0 60.0 50.0 30.0 1 7 6 4 1 6 9 2.34567284584
0 12 47 0 70.0 50.0 10.0 1 8 6 2 2 7 11 2.41114807129
0 12 48 0 50.0 10.0 0.0 1 6 2 1 3 10 13 1.52750205994
0 12 49 1 0.0 10.0 40.0 0 1 2 5 3 9 11 1.50692605972
0 12 50 1 20.0 40.0 50.0 0 3 5 6 1 2 12 1.72753882408
0 12 51 0 40.0 30.0 10.0 1 5 4 2 0 2 14 2.73015999794
0 12 52 1 0.0 30.0 50.0 0 1 4 6 0 13 14 1.46860003471
0 12 53 0 60.0 50.0 40.0 1 7 6 5 4 9 13 2.92482304573
0 12 54 1 10.0 40.0 70.0 0 2 5 8 0 1 3 0.779771089554
0 12 55 0 20.0 10.0 0.0 1 3 2 1 3 5 6 3.93789196014
0 13 0 1 30.0 40.0 70.0 0 4 5 8 3 8 11 1.12483501434
0 13 1 0 70.0 10.0 0.0 1 8 2 1 1 3 4 0.882282972336
0 13 2 1 0.0 20.0 30.0 0 1 3 4 1 3 12 1.66003108025
0 13 3 1 20.0 30.0 70.0 0 3 4 8 0 2 13 0.792329072952
0 13 4 0 70.0 30.0 0.0 1 8 4 1 0 3 5 1.13771510124
0 13 5 1 20.0 50.0 70.0 0 3 6 8 2 10 11 1.50609302521
0 13 6 0 50.0 20.0 10.0 1 6 3 2 2 4 7 1.2599170208
0 13 7 0 10.0 50.0 60.0 0 2 6 7 3 5 13 1.321185112
0 13 8 1 10.0 20.0 60.0 0 2 3 7 0 3 12 1.25140595436
0 13 9 0 0.0 60.0 70.0 0 1 7 8 0 10 11 1.06132078171
0 13 10 1 0.0 30.0 60.0 0 1 4 7 4 13 14 3.32830715179
0 13 11 1 20.0 40.0 60.0 0 3 5 7 4 11 13 2.20071101189
0 13 12 0 30.0 10.0 0.0 1 4 2 1 4 5 10 2.12878417969
0 13 13 0 70.0 50.0 40.0 1 8 6 5 1 2 6 1.51523184776
0 13 14 0 50.0 40.0 0.0 1 6 5 1 5 10 14 4.02034783363
0 13 15 0 70.0 20.0 0.0 1 8 3 1 0 9 10 1.07037401199
0 13 16 0 40.0 60.0 70.0 0 5 7 8 3 7 12 1.62173914909
0 13 17 0 60.0 10.0 0.0 1 7 2 1 2 5 7 1.0303170681
0 13 18 0 60.0 40.0 10.0 1 7 5 2 5 6 13 1.70255613327
0 13 19 1 50.0 60.0 70.0 0 6 7 8 2 3 14 5.0103700161
0 13 20 1 0.0 40.0 70.0 0 1 5 8 4 10 12 1.17727899551
0 13 21 0 60.0 40.0 30.0 1 7 5 4 5 9 12 3.80477809906
0 13 22 0 60.0 20.0 0.0 1 7 3 1 6 12 14 1.51115894318
0 13 23 1 60.0 50.0 0.0 1 7 6 1 9 10 13 4.0520260334
0 13 24 1 70.0 60.0 30.0 1 8 7 4 2 5 12 3.27685284615
0 13 25 1 10.0 30.0 50.0 0 2 4 6 8 11 14 3.63108611107
0 13 26 0 50.0 30.0 20.0 1 6 4 3 4 11 12 2.09937000275
0 13 27 1 0.0 20.0 40.0 0 1 3 5 6 8 11 1.14886593819
0 13 28 1 60.0 50.0 20.0 1 7 6 3 8 9 10 2.25045490265
0 13 29 1 70.0 60.0 20.0 1 8 7 3 8 10 11 2.44503903389
0 13 30 1 30.0 50.0 70.0 0 4 6 8 3 10 13 2.05380702019
0 13 31 0 10.0 60.0 70.0 0 2 7 8 7 10 12 3.49618601799
0 13 32 1 20.0 30.0 40.0 0 3 4 5 4 8 13 2.43181085587
0 13 33 0 40.0 20.0 10.0 1 5 3 2 2 6 14 1.34469413757
0 13 34 0 50.0 40.0 30.0 1 6 5 4 10 11 13 3.70777106285
0 13 35 0 50.0 20.0 0.0 1 6 3 1 3 9 14 1.80659604073
0 13 36 1 20.0 40.0 70.0 0 3 5 8 0 6 12 0.747467041016
0 13 37 0 10.0 40.0 50.0 0 2 5 6 1 6 14 1.65704798698
0 13 38 1 10.0 30.0 60.0 0 2 4 7 8 10 14 1.2593100071
0 13 39 1 10.0 20.0 70.0 0 2 3 8 0 6 8 0.812104940414
0 13 40 1 30.0 20.0 10.0 1 4 3 2 2 4 14 5.40012097359
0 13 41 1 20.0 30.0 60.0 0 3 4 7 1 9 12 1.62202501297
0 13 42 1 10.0 30.0 70.0 0 2 4 8 4 5 6 0.707060098648
0 13 43 1 0.0 40.0 60.0 0 1 5 7 0 2 9 2.16160607338
0 13 44 0 70.0 50.0 0.0 1 8 6 1 0 4 9 2.5848839283
0 13 45 0 40.0 30.0 0.0 1 5 4 1 5 6 11 1.94953393936
0 13 46 1 60.0 50.0 30.0 1 7 6 4 8 13 14 2.13827109337
0 13 47 0 70.0 50.0 10.0 1 8 6 2 6 7 8 2.48404288292
0 13 48 0 50.0 10.0 0.0 1 6 2 1 1 10 11 1.22201395035
0 13 49 1 0.0 10.0 40.0 0 1 2 5 0 9 14 1.36497616768
0 13 50 0 20.0 40.0 50.0 0 3 5 6 2 3 6 2.25818395615
0 13 51 0 40.0 30.0 10.0 1 5 4 2 2 9 12 1.33109998703
0 13 52 1 0.0 30.0 50.0 0 1 4 6 4 7 12 0.930004835129
0 13 53 0 60.0 50.0 40.0 1 7 6 5 5 9 11 2.71043181419
0 13 54 1 10.0 40.0 70.0 0 2 5 8 0 9 11 0.742606878281
0 13 55 1 20.0 10.0 0.0 1 3 2 1 6 7 11 3.99383211136
0 14 0 1 30.0 40.0 70.0 0 4 5 8 0 4 10 0.669684171677
0 14 1 0 70.0 10.0 0.0 1 8 2 1 1 5 11 0.669461965561
0 14 2 1 0.0 20.0 30.0 0 1 3 4 7 11 14 1.88109087944
0 14 3 1 20.0 30.0 70.0 0 3 4 8 0 2 7 0.744521141052
0 14 4 0 70.0 30.0 0.0 1 8 4 1 4 5 7 0.810366153717
0 14 5 0 20.0 50.0 70.0 0 3 6 8 4 7 11 2.19317507744
0 14 6 0 50.0 20.0 10.0 1 6 3 2 2 5 12 0.965291976929
0 14 7 0 10.0 50.0 60.0 0 2 6 7 8 10 14 1.18416905403
0 14 8 1 10.0 20.0 60.0 0 2 3 7 2 3 9 1.92421889305
0 14 9 0 0.0 60.0 70.0 0 1 7 8 0 5 14 1.06603097916
0 14 10 1 0.0 30.0 60.0 0 1 4 7 5 10 12 2.41360902786
0 14 11 1 20.0 40.0 60.0 0 3 5 7 0 10 13 1.51104903221
0 14 12 0 30.0 10.0 0.0 1 4 2 1 5 6 13 2.89854598045
0 14 13 0 70.0 50.0 40.0 1 8 6 5 1 13 14 1.21284103394
0 14 14 1 50.0 40.0 0.0 1 6 5 1 1 5 10 1.21342992783
0 14 15 0 70.0 20.0 0.0 1 8 3 1 3 5 10 1.18063998222
0 14 16 0 40.0 60.0 70.0 0 5 7 8 0 3 4 1.21303391457
0 14 17 0 60.0 10.0 0.0 1 7 2 1 1 3 12 1.35778403282
0 14 18 0 60.0 40.0 10.0 1 7 5 2 1 7 12 1.87266612053
0 14 19 0 50.0 60.0 70.0 0 6 7 8 0 2 6 2.38373422623
0 14 20 1 0.0 40.0 70.0 0 1 5 8 6 8 12 2.04761695862
0 14 21 0 60.0 40.0 30.0 1 7 5 4 2 3 7 1.3242559433
0 14 22 0 60.0 20.0 0.0 1 7 3 1 3 5 11 1.14603281021
0 14 23 1 60.0 50.0 0.0 1 7 6 1 6 7 11 3.4988489151
0 14 24 1 70.0 60.0 30.0 1 8 7 4 1 9 14 1.26163601875
0 14 25 1 10.0 30.0 50.0 0 2 4 6 1 6 14 1.33001899719
0 14 26 0 50.0 30.0 20.0 1 6 4 3 3 5 14 1.03995394707
0 14 27 1 0.0 20.0 40.0 0 1 3 5 4 8 14 1.29896998405
0 14 28 1 60.0 50.0 20.0 1 7 6 3 6 7 10 1.43739104271
0 14 29 1 70.0 60.0 20.0 1 8 7 3 5 6 9 2.41307592392
0 14 30 1 30.0 50.0 70.0 0 4 6 8 1 7 14 1.10557389259
0 14 31 0 10.0 60.0 70.0 0 2 7 8 2 6 11 1.86973690987
0 14 32 1 20.0 30.0 40.0 0 3 4 5 1 4 12 2.68655991554
0 14 33 0 40.0 20.0 10.0 1 5 3 2 0 2 12 1.36795711517
0 14 34 1 50.0 40.0 30.0 1 6 5 4 0 4 5 2.01774597168
0 14 35 0 50.0 20.0 0.0 1 6 3 1 1 6 9 1.15051603317
0 14 36 1 20.0 40.0 70.0 0 3 5 8 0 4 9 0.957902908325
0 14 37 1 10.0 40.0 50.0 0 2 5 6 9 10 11 2.92795920372
0 14 38 1 10.0 30.0 60.0 0 2 4 7 1 4 6 1.83426594734
0 14 39 1 10.0 20.0 70.0 0 2 3 8 6 11 14 0.816591978073
0 14 40 0 30.0 20.0 10.0 1 4 3 2 2 3 6 3.52939105034
0 14 41 1 20.0 30.0 60.0 0 3 4 7 4 11 12 0.81899189949
0 14 42 1 10.0 30.0 70.0 0 2 4 8 6 12 13 0.925496816635
0 14 43 1 0.0 40.0 60.0 0 1 5 7 3 4 8 0.925143003464
0 14 44 0 70.0 50.0 0.0 1 8 6 1 3 6 13 3.49021887779
0 14 45 0 40.0 30.0 0.0 1 5 4 1 3 7 10 3.63942503929
0 14 46 0 60.0 50.0 30.0 1 7 6 4 3 6 14 4.63676381111
0 14 47 1 70.0 50.0 10.0 1 8 6 2 8 11 12 2.19602513313
0 14 48 0 50.0 10.0 0.0 1 6 2 1 1 3 4 1.76944208145
0 14 49 1 0.0 10.0 40.0 0 1 2 5 2 6 13 0.896044015884
0 14 50 1 20.0 40.0 50.0 0 3 5 6 0 12 14 2.20972800255
0 14 51 0 40.0 30.0 10.0 1 5 4 2 3 7 13 7.13799786568
0 14 52 1 0.0 30.0 50.0 0 1 4 6 2 3 11 1.49463009834
0 14 53 0 60.0 50.0 40.0 1 7 6 5 0 2 3 3.88454508781
0 14 54 1 10.0 40.0 70.0 0 2 5 8 6 8 14 2.17266201973
0 14 55 0 20.0 10.0 0.0 1 3 2 1 5 12 13 4.081138134
