Run Block Trial Response s1 s2 s3 invord i1 i2 i3 f1 f2 f3 responsetime
0 0 0 0 70.0 40.0 0.0 1 8 5 1 1 2 4 1.29146003723
0 0 1 0 50.0 20.0 10.0 1 6 3 2 2 4 14 1.88541793823
0 0 2 1 70.0 60.0 10.0 1 8 7 2 5 6 8 1.43119215965
0 0 3 1 0.0 20.0 70.0 0 1 3 8 1 2 10 1.14692211151
0 0 4 1 50.0 60.0 70.0 0 6 7 8 1 2 6 6.51209306717
0 0 5 0 70.0 50.0 40.0 1 8 6 5 5 10 11 1.54409193993
0 0 6 1 30.0 40.0 50.0 0 4 5 6 3 8 11 5.7967338562
0 0 7 1 0.0 10.0 40.0 0 1 2 5 6 9 11 2.13685512543
0 0 8 0 60.0 30.0 10.0 1 7 4 2 4 12 13 1.71113991737
0 0 9 1 10.0 20.0 30.0 0 2 3 4 6 11 14 3.76164793968
0 0 10 0 70.0 50.0 30.0 1 8 6 4 0 1 8 2.50564002991
0 0 11 0 60.0 40.0 30.0 1 7 5 4 3 6 8 2.53774094582
0 0 12 1 60.0 50.0 20.0 1 7 6 3 1 9 12 3.48814916611
0 0 13 0 60.0 40.0 0.0 1 7 5 1 4 10 12 2.39215517044
0 0 14 1 10.0 30.0 40.0 0 2 4 5 4 7 10 3.05704092979
0 0 15 0 30.0 10.0 0.0 1 4 2 1 0 8 11 2.98164510727
0 0 16 0 10.0 40.0 50.0 0 2 5 6 8 9 11 7.80021214485
0 0 17 0 50.0 10.0 0.0 1 6 2 1 5 8 11 2.39062595367
0 0 18 0 50.0 30.0 0.0 1 6 4 1 4 9 10 2.460916996
0 0 19 0 70.0 50.0 20.0 1 8 6 3 6 9 14 1.04212498665
0 0 20 0 70.0 30.0 0.0 1 8 4 1 3 5 7 0.931044101715
0 0 21 1 60.0 50.0 0.0 1 7 6 1 0 8 9 5.48206591606
0 0 22 1 20.0 30.0 40.0 0 3 4 5 5 6 7 9.37549304962
0 0 23 1 0.0 30.0 40.0 0 1 4 5 0 13 14 7.81317996979
0 0 24 0 60.0 40.0 20.0 1 7 5 3 1 4 6 1.30156493187
0 0 25 0 70.0 50.0 0.0 1 8 6 1 0 3 13 0.925567865372
0 0 26 1 10.0 20.0 40.0 0 2 3 5 4 5 6 1.62565279007
0 0 27 0 70.0 40.0 20.0 1 8 5 3 2 5 11 0.750704050064
0 0 28 1 40.0 50.0 60.0 0 5 6 7 4 6 14 6.07188391685
0 0 29 1 0.0 20.0 50.0 0 1 3 6 8 9 12 1.27437996864
0 0 30 0 70.0 60.0 40.0 1 8 7 5 0 10 11 2.70585799217
0 0 31 1 0.0 10.0 70.0 0 1 2 8 2 7 13 1.0496878624
0 0 32 0 60.0 30.0 0.0 1 7 4 1 3 4 5 1.30851793289
0 0 33 1 20.0 30.0 60.0 0 3 4 7 5 11 12 1.31145501137
0 0 34 1 20.0 30.0 50.0 0 3 4 6 2 3 6 3.27856612206
0 0 35 0 70.0 40.0 30.0 1 8 5 4 2 10 13 1.32521891594
0 0 36 0 50.0 30.0 10.0 1 6 4 2 9 11 13 1.47986698151
0 0 37 1 60.0 50.0 30.0 1 7 6 4 3 6 9 3.26513886452
0 0 38 1 10.0 50.0 70.0 0 2 6 8 1 12 14 1.33151102066
0 0 39 0 60.0 10.0 0.0 1 7 2 1 4 10 11 1.47563385963
0 0 40 0 30.0 20.0 0.0 1 4 3 1 4 5 9 5.58928894997
0 0 41 1 10.0 40.0 70.0 0 2 5 8 2 5 6 1.33109402657
0 0 42 1 10.0 30.0 70.0 0 2 4 8 2 3 11 1.07406592369
0 0 43 1 20.0 30.0 70.0 0 3 4 8 7 8 12 1.19903302193
0 0 44 0 30.0 60.0 70.0 0 4 7 8 6 12 14 1.47659516335
0 0 45 1 50.0 40.0 0.0 1 6 5 1 2 5 7 3.30394887924
0 0 46 0 10.0 50.0 60.0 0 2 6 7 2 5 12 2.09124183655
0 0 47 0 60.0 40.0 10.0 1 7 5 2 4 11 14 6.84711408615
0 0 48 0 20.0 40.0 50.0 0 3 5 6 3 8 14 6.05519914627
0 0 49 1 0.0 20.0 40.0 0 1 3 5 0 12 14 2.14141798019
0 0 50 0 20.0 10.0 0.0 1 3 2 1 5 6 10 7.86858010292
0 0 51 0 60.0 20.0 10.0 1 7 3 2 5 6 12 1.29360795021
0 0 52 0 70.0 20.0 10.0 1 8 3 2 1 13 14 1.29843306541
0 0 53 1 70.0 60.0 20.0 1 8 7 3 0 2 10 1.4368789196
0 0 54 1 0.0 20.0 60.0 0 1 3 7 3 7 14 2.28771281242
0 0 55 0 0.0 60.0 70.0 0 1 7 8 1 5 9 1.61367702484
0 1 0 0 70.0 40.0 0.0 1 8 5 1 4 7 10 2.56407904625
0 1 1 0 50.0 20.0 10.0 1 6 3 2 3 7 11 2.03028821945
0 1 2 1 70.0 60.0 10.0 1 8 7 2 1 6 14 1.61691212654
0 1 3 1 0.0 20.0 70.0 0 1 3 8 1 2 5 0.855602025986
0 1 4 1 50.0 60.0 70.0 0 6 7 8 3 8 9 3.91286993027
0 1 5 0 70.0 50.0 40.0 1 8 6 5 3 7 10 1.14418101311
0 1 6 1 30.0 40.0 50.0 0 4 5 6 2 12 14 3.30856895447
0 1 7 1 0.0 10.0 40.0 0 1 2 5 8 9 14 1.10853099823
0 1 8 0 60.0 30.0 10.0 1 7 4 2 6 9 14 0.893368005753
0 1 9 1 10.0 20.0 30.0 0 2 3 4 8 12 13 1.48428106308
0 1 10 0 70.0 50.0 30.0 1 8 6 4 0 6 7 2.17004203796
0 1 11 0 60.0 40.0 30.0 1 7 5 4 3 7 12 1.11304211617
0 1 12 1 60.0 50.0 20.0 1 7 6 3 1 5 6 1.70192790031
0 1 13 0 60.0 40.0 0.0 1 7 5 1 5 6 8 2.78413295746
0 1 14 1 10.0 30.0 40.0 0 2 4 5 3 10 12 3.13009500504
0 1 15 0 30.0 10.0 0.0 1 4 2 1 2 7 8 1.70039701462
0 1 16 0 10.0 40.0 50.0 0 2 5 6 4 6 9 3.93861293793
0 1 17 0 50.0 10.0 0.0 1 6 2 1 3 4 6 1.76629304886
0 1 18 0 50.0 30.0 0.0 1 6 4 1 6 7 11 2.31911301613
0 1 19 0 70.0 50.0 20.0 1 8 6 3 2 3 12 1.68948602676
0 1 20 0 70.0 30.0 0.0 1 8 4 1 2 4 9 0.742251873016
0 1 21 1 60.0 50.0 0.0 1 7 6 1 4 12 14 1.4193239212
0 1 22 1 20.0 30.0 40.0 0 3 4 5 6 8 11 2.33083605766
0 1 23 1 0.0 30.0 40.0 0 1 4 5 10 11 14 5.88143897057
0 1 24 0 60.0 40.0 20.0 1 7 5 3 2 8 13 3.34509396553
0 1 25 0 70.0 50.0 0.0 1 8 6 1 1 6 11 0.707108974457
0 1 26 1 10.0 20.0 40.0 0 2 3 5 7 8 10 1.74000811577
0 1 27 0 70.0 40.0 20.0 1 8 5 3 0 10 14 1.00195407867
0 1 28 0 40.0 50.0 60.0 0 5 6 7 2 13 14 1.80359101295
0 1 29 1 0.0 20.0 50.0 0 1 3 6 0 4 7 1.99210500717
0 1 30 1 70.0 60.0 40.0 1 8 7 5 2 11 13 1.50696516037
0 1 31 1 0.0 10.0 70.0 0 1 2 8 5 6 9 1.34504103661
0 1 32 0 60.0 30.0 0.0 1 7 4 1 2 4 5 1.18125700951
0 1 33 1 20.0 30.0 60.0 0 3 4 7 4 6 13 0.854619026184
0 1 34 1 20.0 30.0 50.0 0 3 4 6 6 8 9 1.62956595421
0 1 35 0 70.0 40.0 30.0 1 8 5 4 3 8 13 1.07375407219
0 1 36 0 50.0 30.0 10.0 1 6 4 2 3 4 9 1.51267290115
0 1 37 1 60.0 50.0 30.0 1 7 6 4 3 6 10 6.84371089935
0 1 38 1 10.0 50.0 70.0 0 2 6 8 5 11 12 1.21810817719
0 1 39 0 60.0 10.0 0.0 1 7 2 1 7 8 13 1.44380497932
0 1 40 0 30.0 20.0 0.0 1 4 3 1 4 5 12 3.17008304596
0 1 41 1 10.0 40.0 70.0 0 2 5 8 3 6 14 3.07755589485
0 1 42 1 10.0 30.0 70.0 0 2 4 8 0 8 13 0.782149076462
0 1 43 1 20.0 30.0 70.0 0 3 4 8 2 7 14 1.26317214966
0 1 44 0 30.0 60.0 70.0 0 4 7 8 5 12 13 2.01780796051
0 1 45 1 50.0 40.0 0.0 1 6 5 1 1 3 8 1.80978703499
0 1 46 0 10.0 50.0 60.0 0 2 6 7 4 10 13 1.66197395325
0 1 47 0 60.0 40.0 10.0 1 7 5 2 6 11 12 6.15777802467
0 1 48 0 20.0 40.0 50.0 0 3 5 6 1 3 4 3.71075487137
0 1 49 1 0.0 20.0 40.0 0 1 3 5 2 11 12 1.33471417427
0 1 50 0 20.0 10.0 0.0 1 3 2 1 0 12 14 2.1875538826
0 1 51 0 60.0 20.0 10.0 1 7 3 2 3 5 6 1.11398696899
0 1 52 0 70.0 20.0 10.0 1 8 3 2 0 1 13 0.676801919937
0 1 53 1 70.0 60.0 20.0 1 8 7 3 3 13 14 2.12993407249
0 1 54 1 0.0 20.0 60.0 0 1 3 7 9 11 14 1.22809505463
0 1 55 0 0.0 60.0 70.0 0 1 7 8 1 4 12 1.18969798088
0 2 0 0 70.0 40.0 0.0 1 8 5 1 2 6 12 0.711993932724
0 2 1 0 50.0 20.0 10.0 1 6 3 2 2 11 13 1.55491495132
0 2 2 1 70.0 60.0 10.0 1 8 7 2 3 5 6 1.03486609459
0 2 3 1 0.0 20.0 70.0 0 1 3 8 2 3 10 1.07386398315
0 2 4 1 50.0 60.0 70.0 0 6 7 8 0 1 14 3.69628000259
0 2 5 0 70.0 50.0 40.0 1 8 6 5 4 5 13 1.03529906273
0 2 6 1 30.0 40.0 50.0 0 4 5 6 8 11 13 4.99581408501
0 2 7 1 0.0 10.0 40.0 0 1 2 5 7 12 13 1.95816016197
0 2 8 0 60.0 30.0 10.0 1 7 4 2 2 7 11 1.04002213478
0 2 9 1 10.0 20.0 30.0 0 2 3 4 7 8 14 3.57301807404
0 2 10 0 70.0 50.0 30.0 1 8 6 4 2 5 6 1.7647600174
0 2 11 0 60.0 40.0 30.0 1 7 5 4 5 10 12 2.39250612259
0 2 12 1 60.0 50.0 20.0 1 7 6 3 2 5 9 2.58140897751
0 2 13 0 60.0 40.0 0.0 1 7 5 1 3 5 10 4.79537200928
0 2 14 1 10.0 30.0 40.0 0 2 4 5 1 4 10 1.66884207726
0 2 15 0 30.0 10.0 0.0 1 4 2 1 5 7 9 2.3228828907
0 2 16 0 10.0 40.0 50.0 0 2 5 6 4 6 10 1.7302031517
0 2 17 0 50.0 10.0 0.0 1 6 2 1 6 9 14 1.84734392166
0 2 18 0 50.0 30.0 0.0 1 6 4 1 2 7 9 1.29188895226
0 2 19 0 70.0 50.0 20.0 1 8 6 3 1 9 11 1.18378996849
0 2 20 0 70.0 30.0 0.0 1 8 4 1 1 10 14 0.741357088089
0 2 21 1 60.0 50.0 0.0 1 7 6 1 5 9 10 1.54282402992
0 2 22 1 20.0 30.0 40.0 0 3 4 5 3 7 12 5.41577315331
0 2 23 1 0.0 30.0 40.0 0 1 4 5 0 2 7 4.11908793449
0 2 24 0 60.0 40.0 20.0 1 7 5 3 8 11 14 1.45452880859
0 2 25 0 70.0 50.0 0.0 1 8 6 1 3 8 11 1.24847602844
0 2 26 1 10.0 20.0 40.0 0 2 3 5 3 4 13 1.75121688843
0 2 27 0 70.0 40.0 20.0 1 8 5 3 3 6 14 1.18407201767
0 2 28 1 40.0 50.0 60.0 0 5 6 7 1 4 14 2.35056090355
0 2 29 1 0.0 20.0 50.0 0 1 3 6 1 3 6 1.37106394768
0 2 30 0 70.0 60.0 40.0 1 8 7 5 7 10 12 7.95490503311
0 2 31 1 0.0 10.0 70.0 0 1 2 8 2 10 14 0.599212169647
0 2 32 0 60.0 30.0 0.0 1 7 4 1 8 9 11 0.942581892014
0 2 33 1 20.0 30.0 60.0 0 3 4 7 0 7 10 0.748592853546
0 2 34 1 20.0 30.0 50.0 0 3 4 6 0 2 12 1.92396211624
0 2 35 0 70.0 40.0 30.0 1 8 5 4 8 9 12 1.25202703476
0 2 36 0 50.0 30.0 10.0 1 6 4 2 2 5 14 1.37032985687
0 2 37 1 60.0 50.0 30.0 1 7 6 4 6 10 13 9.15189886093
0 2 38 1 10.0 50.0 70.0 0 2 6 8 1 8 11 1.18581390381
0 2 39 0 60.0 10.0 0.0 1 7 2 1 4 10 12 1.40639710426
0 2 40 0 30.0 20.0 0.0 1 4 3 1 1 5 6 2.03199982643
0 2 41 1 10.0 40.0 70.0 0 2 5 8 3 10 14 1.17201304436
0 2 42 1 10.0 30.0 70.0 0 2 4 8 0 7 9 0.723237991333
0 2 43 1 20.0 30.0 70.0 0 3 4 8 3 8 12 0.651622056961
0 2 44 0 30.0 60.0 70.0 0 4 7 8 9 11 14 1.25381207466
0 2 45 1 50.0 40.0 0.0 1 6 5 1 5 6 7 1.55348300934
0 2 46 0 10.0 50.0 60.0 0 2 6 7 0 1 11 1.6271109581
0 2 47 0 60.0 40.0 10.0 1 7 5 2 2 6 7 6.1532740593
0 2 48 1 20.0 40.0 50.0 0 3 5 6 2 6 11 6.16491007805
0 2 49 1 0.0 20.0 40.0 0 1 3 5 0 1 13 1.15128087997
0 2 50 0 20.0 10.0 0.0 1 3 2 1 0 3 13 4.45036911964
0 2 51 0 60.0 20.0 10.0 1 7 3 2 6 8 12 1.09140706062
0 2 52 0 70.0 20.0 10.0 1 8 3 2 4 12 13 0.637269020081
0 2 53 1 70.0 60.0 20.0 1 8 7 3 0 1 10 1.54689908028
0 2 54 1 0.0 20.0 60.0 0 1 3 7 6 7 8 1.3318297863
0 2 55 0 0.0 60.0 70.0 0 1 7 8 3 4 11 1.2141931057
0 3 0 0 70.0 40.0 0.0 1 8 5 1 8 12 13 1.26734399796
0 3 1 0 50.0 20.0 10.0 1 6 3 2 0 2 7 1.37674689293
0 3 2 1 70.0 60.0 10.0 1 8 7 2 2 5 12 0.962764024734
0 3 3 1 0.0 20.0 70.0 0 1 3 8 0 2 8 0.741970062256
0 3 4 1 50.0 60.0 70.0 0 6 7 8 6 7 13 7.24271082878
0 3 5 0 70.0 50.0 40.0 1 8 6 5 7 10 12 0.780274868011
0 3 6 1 30.0 40.0 50.0 0 4 5 6 1 4 7 2.58136701584
0 3 7 1 0.0 10.0 40.0 0 1 2 5 1 9 11 1.01512002945
0 3 8 0 60.0 30.0 10.0 1 7 4 2 2 5 14 0.722434043884
0 3 9 1 10.0 20.0 30.0 0 2 3 4 3 4 12 1.44790410995
0 3 10 0 70.0 50.0 30.0 1 8 6 4 1 6 12 1.25544118881
0 3 11 0 60.0 40.0 30.0 1 7 5 4 4 9 14 1.47424292564
0 3 12 1 60.0 50.0 20.0 1 7 6 3 0 7 11 5.80284690857
0 3 13 0 60.0 40.0 0.0 1 7 5 1 0 3 6 1.54917097092
0 3 14 1 10.0 30.0 40.0 0 2 4 5 0 5 9 2.72724890709
0 3 15 0 30.0 10.0 0.0 1 4 2 1 2 8 14 1.85836386681
0 3 16 0 10.0 40.0 50.0 0 2 5 6 2 9 12 1.62448120117
0 3 17 0 50.0 10.0 0.0 1 6 2 1 1 6 9 1.36794090271
0 3 18 0 50.0 30.0 0.0 1 6 4 1 1 10 11 2.11139678955
0 3 19 0 70.0 50.0 20.0 1 8 6 3 6 8 9 3.7676680088
0 3 20 0 70.0 30.0 0.0 1 8 4 1 1 8 9 0.527367830276
0 3 21 1 60.0 50.0 0.0 1 7 6 1 6 9 12 1.43322920799
0 3 22 1 20.0 30.0 40.0 0 3 4 5 7 9 10 3.24525284767
0 3 23 1 0.0 30.0 40.0 0 1 4 5 8 9 11 1.41867113113
0 3 24 0 60.0 40.0 20.0 1 7 5 3 5 9 10 1.44291901588
0 3 25 0 70.0 50.0 0.0 1 8 6 1 2 3 9 0.924554109573
0 3 26 1 10.0 20.0 40.0 0 2 3 5 0 9 13 1.70782184601
0 3 27 0 70.0 40.0 20.0 1 8 5 3 3 6 13 0.746268033981
0 3 28 1 40.0 50.0 60.0 0 5 6 7 0 4 6 2.78876590729
0 3 29 1 0.0 20.0 50.0 0 1 3 6 2 11 14 1.12531995773
0 3 30 0 70.0 60.0 40.0 1 8 7 5 1 9 12 3.22125005722
0 3 31 1 0.0 10.0 70.0 0 1 2 8 3 5 9 0.7125248909
0 3 32 0 60.0 30.0 0.0 1 7 4 1 6 12 13 1.9151930809
0 3 33 1 20.0 30.0 60.0 0 3 4 7 5 7 14 1.48059296608
0 3 34 1 20.0 30.0 50.0 0 3 4 6 0 4 7 2.07366704941
0 3 35 0 70.0 40.0 30.0 1 8 5 4 6 11 12 1.03723192215
0 3 36 0 50.0 30.0 10.0 1 6 4 2 8 11 14 1.29745912552
0 3 37 0 60.0 50.0 30.0 1 7 6 4 6 10 14 4.61636710167
0 3 38 1 10.0 50.0 70.0 0 2 6 8 2 7 12 0.670611858368
0 3 39 0 60.0 10.0 0.0 1 7 2 1 1 11 12 1.33071899414
0 3 40 0 30.0 20.0 0.0 1 4 3 1 2 10 14 3.64170002937
0 3 41 1 10.0 40.0 70.0 0 2 5 8 3 6 8 1.00036215782
0 3 42 1 10.0 30.0 70.0 0 2 4 8 6 8 12 0.742191076279
0 3 43 1 20.0 30.0 70.0 0 3 4 8 8 12 14 1.25426387787
0 3 44 0 30.0 60.0 70.0 0 4 7 8 3 12 13 1.36282896996
0 3 45 1 50.0 40.0 0.0 1 6 5 1 2 3 6 1.5862429142
0 3 46 0 10.0 50.0 60.0 0 2 6 7 0 7 9 1.30446910858
0 3 47 1 60.0 40.0 10.0 1 7 5 2 1 4 11 2.32923579216
0 3 48 1 20.0 40.0 50.0 0 3 5 6 0 8 13 7.87173914909
0 3 49 1 0.0 20.0 40.0 0 1 3 5 1 5 14 1.19927597046
0 3 50 0 20.0 10.0 0.0 1 3 2 1 11 12 14 6.35498595238
0 3 51 0 60.0 20.0 10.0 1 7 3 2 0 12 13 1.07810401917
0 3 52 0 70.0 20.0 10.0 1 8 3 2 10 13 14 1.14834713936
0 3 53 1 70.0 60.0 20.0 1 8 7 3 1 4 6 1.03620815277
0 3 54 1 0.0 20.0 60.0 0 1 3 7 10 12 14 1.58873605728
0 3 55 0 0.0 60.0 70.0 0 1 7 8 1 2 11 1.03369092941
0 4 0 0 70.0 40.0 0.0 1 8 5 1 0 7 14 0.852982997894
0 4 1 0 50.0 20.0 10.0 1 6 3 2 0 3 14 1.18807601929
0 4 2 1 70.0 60.0 10.0 1 8 7 2 5 6 11 1.29426288605
0 4 3 1 0.0 20.0 70.0 0 1 3 8 2 4 12 0.720613002777
0 4 4 1 50.0 60.0 70.0 0 6 7 8 4 10 11 4.55518388748
0 4 5 0 70.0 50.0 40.0 1 8 6 5 8 10 12 0.502187013626
0 4 6 0 30.0 40.0 50.0 0 4 5 6 0 6 11 1.86324810982
0 4 7 1 0.0 10.0 40.0 0 1 2 5 1 8 12 1.41883611679
0 4 8 0 60.0 30.0 10.0 1 7 4 2 0 1 4 1.15219902992
0 4 9 1 10.0 20.0 30.0 0 2 3 4 4 11 13 1.70563697815
0 4 10 0 70.0 50.0 30.0 1 8 6 4 0 10 11 1.76007008553
0 4 11 0 60.0 40.0 30.0 1 7 5 4 3 6 7 1.64842796326
0 4 12 1 60.0 50.0 20.0 1 7 6 3 9 10 14 1.63495707512
0 4 13 0 60.0 40.0 0.0 1 7 5 1 0 8 10 7.27566599846
0 4 14 0 10.0 30.0 40.0 0 2 4 5 5 8 13 6.24708414078
0 4 15 0 30.0 10.0 0.0 1 4 2 1 2 5 8 1.22459292412
0 4 16 1 10.0 40.0 50.0 0 2 5 6 0 6 8 4.00844597816
0 4 17 0 50.0 10.0 0.0 1 6 2 1 0 4 14 1.25930404663
0 4 18 0 50.0 30.0 0.0 1 6 4 1 4 12 13 1.73402905464
0 4 19 0 70.0 50.0 20.0 1 8 6 3 2 8 12 1.21466588974
0 4 20 0 70.0 30.0 0.0 1 8 4 1 2 4 6 0.959285020828
0 4 21 1 60.0 50.0 0.0 1 7 6 1 0 2 7 2.45739197731
0 4 22 1 20.0 30.0 40.0 0 3 4 5 2 4 11 3.61296200752
0 4 23 0 0.0 30.0 40.0 0 1 4 5 5 6 14 6.09340000153
0 4 24 0 60.0 40.0 20.0 1 7 5 3 3 6 10 3.67976903915
0 4 25 0 70.0 50.0 0.0 1 8 6 1 0 2 10 0.738834857941
0 4 26 1 10.0 20.0 40.0 0 2 3 5 6 8 12 1.38719987869
0 4 27 0 70.0 40.0 20.0 1 8 5 3 4 5 12 1.03838920593
0 4 28 0 40.0 50.0 60.0 0 5 6 7 0 9 11 1.30457901955
0 4 29 1 0.0 20.0 50.0 0 1 3 6 1 2 6 1.64670014381
0 4 30 1 70.0 60.0 40.0 1 8 7 5 1 5 14 5.83367085457
0 4 31 1 0.0 10.0 70.0 0 1 2 8 0 5 6 0.994959115982
0 4 32 0 60.0 30.0 0.0 1 7 4 1 0 1 12 0.778521060944
0 4 33 1 20.0 30.0 60.0 0 3 4 7 6 7 13 0.724426984787
0 4 34 1 20.0 30.0 50.0 0 3 4 6 9 10 11 1.38398003578
0 4 35 0 70.0 40.0 30.0 1 8 5 4 9 10 12 1.25194001198
0 4 36 0 50.0 30.0 10.0 1 6 4 2 2 10 12 3.56616091728
0 4 37 1 60.0 50.0 30.0 1 7 6 4 1 9 13 3.80862879753
0 4 38 1 10.0 50.0 70.0 0 2 6 8 0 4 6 1.6184232235
0 4 39 0 60.0 10.0 0.0 1 7 2 1 0 4 12 1.43957519531
0 4 40 0 30.0 20.0 0.0 1 4 3 1 0 1 2 4.33750081062
0 4 41 1 10.0 40.0 70.0 0 2 5 8 1 8 11 0.686338186264
0 4 42 1 10.0 30.0 70.0 0 2 4 8 4 6 7 0.709311962128
0 4 43 1 20.0 30.0 70.0 0 3 4 8 6 13 14 0.747429847717
0 4 44 0 30.0 60.0 70.0 0 4 7 8 1 2 9 2.16381812096
0 4 45 1 50.0 40.0 0.0 1 6 5 1 0 5 13 3.70977520943
0 4 46 0 10.0 50.0 60.0 0 2 6 7 1 5 6 3.62414503098
0 4 47 0 60.0 40.0 10.0 1 7 5 2 2 11 14 4.03505992889
0 4 48 0 20.0 40.0 50.0 0 3 5 6 5 9 13 1.77029705048
0 4 49 1 0.0 20.0 40.0 0 1 3 5 0 1 7 3.54305791855
0 4 50 0 20.0 10.0 0.0 1 3 2 1 7 10 12 11.1380288601
0 4 51 0 60.0 20.0 10.0 1 7 3 2 0 6 9 1.40769577026
0 4 52 0 70.0 20.0 10.0 1 8 3 2 7 8 9 0.782986164093
0 4 53 1 70.0 60.0 20.0 1 8 7 3 3 6 14 1.36779522896
0 4 54 1 0.0 20.0 60.0 0 1 3 7 0 8 12 1.18196487427
0 4 55 0 0.0 60.0 70.0 0 1 7 8 1 4 14 0.924175977707
0 5 0 0 70.0 40.0 0.0 1 8 5 1 3 7 10 0.853998184204
0 5 1 0 50.0 20.0 10.0 1 6 3 2 3 5 8 1.48188018799
0 5 2 1 70.0 60.0 10.0 1 8 7 2 4 7 13 3.33002090454
0 5 3 1 0.0 20.0 70.0 0 1 3 8 8 9 14 1.25720906258
0 5 4 0 50.0 60.0 70.0 0 6 7 8 6 7 13 0.931096792221
0 5 5 0 70.0 50.0 40.0 1 8 6 5 7 8 10 2.26829099655
0 5 6 1 30.0 40.0 50.0 0 4 5 6 1 5 11 5.39838385582
0 5 7 1 0.0 10.0 40.0 0 1 2 5 6 12 14 2.17319107056
0 5 8 0 60.0 30.0 10.0 1 7 4 2 2 10 13 1.37174582481
0 5 9 1 10.0 20.0 30.0 0 2 3 4 0 1 14 2.76956796646
0 5 10 0 70.0 50.0 30.0 1 8 6 4 1 2 7 5.55384707451
0 5 11 0 60.0 40.0 30.0 1 7 5 4 7 13 14 1.62064790726
0 5 12 1 60.0 50.0 20.0 1 7 6 3 2 9 11 1.52926492691
0 5 13 0 60.0 40.0 0.0 1 7 5 1 0 5 8 4.95346999168
0 5 14 1 10.0 30.0 40.0 0 2 4 5 3 4 14 1.64236497879
0 5 15 0 30.0 10.0 0.0 1 4 2 1 6 8 14 1.04122495651
0 5 16 0 10.0 40.0 50.0 0 2 5 6 10 12 14 3.27519917488
0 5 17 0 50.0 10.0 0.0 1 6 2 1 6 10 12 1.94706606865
0 5 18 0 50.0 30.0 0.0 1 6 4 1 2 4 14 2.93984103203
0 5 19 0 70.0 50.0 20.0 1 8 6 3 2 4 6 2.16788887978
0 5 20 0 70.0 30.0 0.0 1 8 4 1 8 10 14 0.59502196312
0 5 21 1 60.0 50.0 0.0 1 7 6 1 0 1 4 1.98819208145
0 5 22 1 20.0 30.0 40.0 0 3 4 5 2 7 8 2.98912501335
0 5 23 1 0.0 30.0 40.0 0 1 4 5 0 8 12 2.60972905159
0 5 24 0 60.0 40.0 20.0 1 7 5 3 3 11 13 2.47917103767
0 5 25 0 70.0 50.0 0.0 1 8 6 1 8 9 12 1.05552887917
0 5 26 1 10.0 20.0 40.0 0 2 3 5 2 10 12 1.80932092667
0 5 27 0 70.0 40.0 20.0 1 8 5 3 12 13 14 0.785757064819
0 5 28 1 40.0 50.0 60.0 0 5 6 7 1 4 9 2.09871792793
0 5 29 1 0.0 20.0 50.0 0 1 3 6 4 5 12 1.18767118454
0 5 30 0 70.0 60.0 40.0 1 8 7 5 0 2 7 4.31146812439
0 5 31 1 0.0 10.0 70.0 0 1 2 8 3 8 10 0.865700960159
0 5 32 0 60.0 30.0 0.0 1 7 4 1 5 8 11 1.07499694824
0 5 33 1 20.0 30.0 60.0 0 3 4 7 6 8 13 1.08934521675
0 5 34 1 20.0 30.0 50.0 0 3 4 6 1 11 13 1.29961800575
0 5 35 0 70.0 40.0 30.0 1 8 5 4 2 7 10 0.673137903214
0 5 36 0 50.0 30.0 10.0 1 6 4 2 3 5 13 2.03008103371
0 5 37 1 60.0 50.0 30.0 1 7 6 4 3 7 11 1.54554796219
0 5 38 1 10.0 50.0 70.0 0 2 6 8 6 7 12 1.10807108879
0 5 39 0 60.0 10.0 0.0 1 7 2 1 5 9 11 0.891592979431
0 5 40 0 30.0 20.0 0.0 1 4 3 1 5 8 13 1.96028709412
0 5 41 1 10.0 40.0 70.0 0 2 5 8 1 5 7 0.78124499321
0 5 42 1 10.0 30.0 70.0 0 2 4 8 0 1 7 0.672986984253
0 5 43 1 20.0 30.0 70.0 0 3 4 8 7 10 14 0.745777130127
0 5 44 0 30.0 60.0 70.0 0 4 7 8 2 3 12 1.77486109734
0 5 45 1 50.0 40.0 0.0 1 6 5 1 0 6 12 1.65970492363
0 5 46 0 10.0 50.0 60.0 0 2 6 7 0 11 13 3.60666584969
0 5 47 0 60.0 40.0 10.0 1 7 5 2 3 12 14 4.10734200478
0 5 48 0 20.0 40.0 50.0 0 3 5 6 0 3 14 1.58701395988
0 5 49 1 0.0 20.0 40.0 0 1 3 5 3 5 11 2.21417713165
0 5 50 1 20.0 10.0 0.0 1 3 2 1 1 7 9 2.85730409622
0 5 51 0 60.0 20.0 10.0 1 7 3 2 0 10 14 0.857592105865
0 5 52 0 70.0 20.0 10.0 1 8 3 2 7 9 11 0.632839918137
0 5 53 1 70.0 60.0 20.0 1 8 7 3 4 5 13 2.7530901432
0 5 54 1 0.0 20.0 60.0 0 1 3 7 4 6 11 1.62481498718
0 5 55 0 0.0 60.0 70.0 0 1 7 8 2 11 13 0.81566286087
0 6 0 0 70.0 40.0 0.0 1 8 5 1 3 6 11 0.9628469944
0 6 1 0 50.0 20.0 10.0 1 6 3 2 0 8 13 1.30163192749
0 6 2 1 70.0 60.0 10.0 1 8 7 2 3 7 14 0.828451156616
0 6 3 1 0.0 20.0 70.0 0 1 3 8 0 2 7 0.741927862167
0 6 4 1 50.0 60.0 70.0 0 6 7 8 0 8 11 2.34112596512
0 6 5 0 70.0 50.0 40.0 1 8 6 5 7 8 14 1.72220897675
0 6 6 0 30.0 40.0 50.0 0 4 5 6 4 7 14 3.23052382469
0 6 7 1 0.0 10.0 40.0 0 1 2 5 3 5 11 1.44224596024
0 6 8 0 60.0 30.0 10.0 1 7 4 2 7 8 9 0.710104942322
0 6 9 1 10.0 20.0 30.0 0 2 3 4 7 12 13 2.08324193954
0 6 10 0 70.0 50.0 30.0 1 8 6 4 1 3 12 1.25529718399
0 6 11 0 60.0 40.0 30.0 1 7 5 4 3 4 10 1.33734679222
0 6 12 1 60.0 50.0 20.0 1 7 6 3 0 9 13 1.36912298203
0 6 13 0 60.0 40.0 0.0 1 7 5 1 4 8 11 2.42388105392
0 6 14 1 10.0 30.0 40.0 0 2 4 5 6 8 9 1.77845907211
0 6 15 0 30.0 10.0 0.0 1 4 2 1 6 8 11 1.29853510857
0 6 16 0 10.0 40.0 50.0 0 2 5 6 0 5 6 1.84415602684
0 6 17 0 50.0 10.0 0.0 1 6 2 1 4 11 12 1.29499101639
0 6 18 0 50.0 30.0 0.0 1 6 4 1 1 2 3 1.2333419323
0 6 19 0 70.0 50.0 20.0 1 8 6 3 0 13 14 1.81516003609
0 6 20 0 70.0 30.0 0.0 1 8 4 1 3 4 12 0.631341934204
0 6 21 1 60.0 50.0 0.0 1 7 6 1 1 4 13 1.32366299629
0 6 22 1 20.0 30.0 40.0 0 3 4 5 8 10 11 2.8171620369
0 6 23 1 0.0 30.0 40.0 0 1 4 5 1 6 11 1.84552001953
0 6 24 0 60.0 40.0 20.0 1 7 5 3 0 4 11 3.09069681168
0 6 25 0 70.0 50.0 0.0 1 8 6 1 3 7 8 1.17946791649
0 6 26 1 10.0 20.0 40.0 0 2 3 5 2 3 14 1.22976517677
0 6 27 0 70.0 40.0 20.0 1 8 5 3 7 9 10 1.30482387543
0 6 28 1 40.0 50.0 60.0 0 5 6 7 1 6 12 1.89070892334
0 6 29 1 0.0 20.0 50.0 0 1 3 6 6 7 13 1.22304701805
0 6 30 0 70.0 60.0 40.0 1 8 7 5 2 5 12 2.48808002472
0 6 31 1 0.0 10.0 70.0 0 1 2 8 2 6 12 0.886059045792
0 6 32 0 60.0 30.0 0.0 1 7 4 1 7 9 14 1.18579697609
0 6 33 1 20.0 30.0 60.0 0 3 4 7 5 6 13 1.40820407867
0 6 34 1 20.0 30.0 50.0 0 3 4 6 4 7 11 1.08335900307
0 6 35 0 70.0 40.0 30.0 1 8 5 4 1 6 7 1.76647305489
0 6 36 0 50.0 30.0 10.0 1 6 4 2 2 6 11 2.13847494125
0 6 37 1 60.0 50.0 30.0 1 7 6 4 0 3 9 1.41745209694
0 6 38 1 10.0 50.0 70.0 0 2 6 8 2 3 7 3.03850007057
0 6 39 0 60.0 10.0 0.0 1 7 2 1 4 6 10 1.18456888199
0 6 40 1 30.0 20.0 0.0 1 4 3 1 2 8 11 3.09553790092
0 6 41 1 10.0 40.0 70.0 0 2 5 8 1 7 11 1.21833896637
0 6 42 1 10.0 30.0 70.0 0 2 4 8 3 8 9 0.892173051834
0 6 43 1 20.0 30.0 70.0 0 3 4 8 4 8 10 1.03490686417
0 6 44 0 30.0 60.0 70.0 0 4 7 8 2 5 7 1.50777697563
0 6 45 1 50.0 40.0 0.0 1 6 5 1 1 4 9 1.43567013741
0 6 46 0 10.0 50.0 60.0 0 2 6 7 6 9 12 1.66642999649
0 6 47 0 60.0 40.0 10.0 1 7 5 2 3 7 11 2.89742994308
0 6 48 0 20.0 40.0 50.0 0 3 5 6 4 7 10 1.55490684509
0 6 49 1 0.0 20.0 40.0 0 1 3 5 5 7 12 3.96710085869
0 6 50 1 20.0 10.0 0.0 1 3 2 1 0 6 13 5.2958791256
0 6 51 0 60.0 20.0 10.0 1 7 3 2 0 7 8 0.821062803268
0 6 52 0 70.0 20.0 10.0 1 8 3 2 3 4 14 1.25726604462
0 6 53 1 70.0 60.0 20.0 1 8 7 3 0 11 12 0.865402936935
0 6 54 1 0.0 20.0 60.0 0 1 3 7 6 13 14 1.14436197281
0 6 55 0 0.0 60.0 70.0 0 1 7 8 4 9 12 0.851239919662
0 7 0 0 70.0 40.0 0.0 1 8 5 1 4 8 13 3.57974910736
0 7 1 0 50.0 20.0 10.0 1 6 3 2 2 8 9 1.26130509377
0 7 2 1 70.0 60.0 10.0 1 8 7 2 0 2 7 0.779998064041
0 7 3 1 0.0 20.0 70.0 0 1 3 8 10 11 14 1.15888619423
0 7 4 0 50.0 60.0 70.0 0 6 7 8 10 13 14 2.55464410782
0 7 5 0 70.0 50.0 40.0 1 8 6 5 2 4 8 3.21367502213
0 7 6 0 30.0 40.0 50.0 0 4 5 6 7 8 14 10.4741249084
0 7 7 1 0.0 10.0 40.0 0 1 2 5 6 8 11 1.44216895103
0 7 8 0 60.0 30.0 10.0 1 7 4 2 2 4 6 1.03731703758
0 7 9 1 10.0 20.0 30.0 0 2 3 4 0 10 11 1.23366308212
0 7 10 0 70.0 50.0 30.0 1 8 6 4 3 6 10 0.744762897491
0 7 11 0 60.0 40.0 30.0 1 7 5 4 1 12 14 1.16049695015
0 7 12 1 60.0 50.0 20.0 1 7 6 3 2 6 13 1.47953414917
0 7 13 0 60.0 40.0 0.0 1 7 5 1 3 7 9 3.45658898354
0 7 14 1 10.0 30.0 40.0 0 2 4 5 1 3 10 2.72288918495
0 7 15 0 30.0 10.0 0.0 1 4 2 1 1 7 10 1.2932240963
0 7 16 0 10.0 40.0 50.0 0 2 5 6 2 8 14 5.62300896645
0 7 17 0 50.0 10.0 0.0 1 6 2 1 5 8 12 1.70110201836
0 7 18 0 50.0 30.0 0.0 1 6 4 1 0 3 8 2.09951400757
0 7 19 0 70.0 50.0 20.0 1 8 6 3 0 8 14 1.28847193718
0 7 20 0 70.0 30.0 0.0 1 8 4 1 5 10 11 0.635766983032
0 7 21 1 60.0 50.0 0.0 1 7 6 1 4 9 10 1.65972185135
0 7 22 1 20.0 30.0 40.0 0 3 4 5 7 9 13 3.8732521534
0 7 23 1 0.0 30.0 40.0 0 1 4 5 1 6 7 1.1172709465
0 7 24 0 60.0 40.0 20.0 1 7 5 3 1 2 6 2.57815599442
0 7 25 0 70.0 50.0 0.0 1 8 6 1 1 10 13 2.85915207863
0 7 26 1 10.0 20.0 40.0 0 2 3 5 8 11 12 1.34812307358
0 7 27 0 70.0 40.0 20.0 1 8 5 3 1 8 10 0.705244064331
0 7 28 1 40.0 50.0 60.0 0 5 6 7 1 4 13 0.599274873734
0 7 29 1 0.0 20.0 50.0 0 1 3 6 3 7 14 1.82028222084
0 7 30 0 70.0 60.0 40.0 1 8 7 5 0 11 14 3.03757596016
0 7 31 1 0.0 10.0 70.0 0 1 2 8 9 11 14 0.780615091324
0 7 32 0 60.0 30.0 0.0 1 7 4 1 0 6 10 1.16198205948
0 7 33 1 20.0 30.0 60.0 0 3 4 7 6 11 13 1.51871418953
0 7 34 1 20.0 30.0 50.0 0 3 4 6 5 11 14 1.44576907158
0 7 35 0 70.0 40.0 30.0 1 8 5 4 0 8 12 0.687294960022
0 7 36 0 50.0 30.0 10.0 1 6 4 2 1 6 9 1.81395292282
0 7 37 1 60.0 50.0 30.0 1 7 6 4 0 3 7 4.37288594246
0 7 38 1 10.0 50.0 70.0 0 2 6 8 0 1 3 2.05521917343
0 7 39 0 60.0 10.0 0.0 1 7 2 1 4 7 13 1.29714512825
0 7 40 0 30.0 20.0 0.0 1 4 3 1 2 4 7 2.58273386955
0 7 41 1 10.0 40.0 70.0 0 2 5 8 1 5 9 0.817523956299
0 7 42 1 10.0 30.0 70.0 0 2 4 8 1 8 14 0.647150993347
0 7 43 1 20.0 30.0 70.0 0 3 4 8 0 3 11 1.30696797371
0 7 44 0 30.0 60.0 70.0 0 4 7 8 3 9 12 1.10836601257
0 7 45 1 50.0 40.0 0.0 1 6 5 1 4 8 11 2.75473499298
0 7 46 0 10.0 50.0 60.0 0 2 6 7 2 7 12 1.73446917534
0 7 47 0 60.0 40.0 10.0 1 7 5 2 1 5 7 2.97922205925
0 7 48 0 20.0 40.0 50.0 0 3 5 6 2 4 13 1.84701991081
0 7 49 1 0.0 20.0 40.0 0 1 3 5 0 1 7 2.48047590256
0 7 50 0 20.0 10.0 0.0 1 3 2 1 4 10 14 2.22820210457
0 7 51 0 60.0 20.0 10.0 1 7 3 2 4 6 8 1.05249190331
0 7 52 0 70.0 20.0 10.0 1 8 3 2 4 9 12 0.906614780426
0 7 53 1 70.0 60.0 20.0 1 8 7 3 5 9 11 1.36396098137
0 7 54 1 0.0 20.0 60.0 0 1 3 7 4 9 11 1.10802221298
0 7 55 0 0.0 60.0 70.0 0 1 7 8 2 5 6 0.814993143082
0 8 0 0 70.0 40.0 0.0 1 8 5 1 2 6 11 0.593397855759
0 8 1 0 50.0 20.0 10.0 1 6 3 2 0 6 8 0.78542304039
0 8 2 1 70.0 60.0 10.0 1 8 7 2 2 7 11 1.72588682175
0 8 3 1 0.0 20.0 70.0 0 1 3 8 2 8 12 0.777307987213
0 8 4 0 50.0 60.0 70.0 0 6 7 8 0 9 13 1.10548782349
0 8 5 0 70.0 50.0 40.0 1 8 6 5 6 7 9 4.92484593391
0 8 6 1 30.0 40.0 50.0 0 4 5 6 2 3 10 3.17499494553
0 8 7 1 0.0 10.0 40.0 0 1 2 5 4 9 13 1.14938306808
0 8 8 0 60.0 30.0 10.0 1 7 4 2 0 2 6 1.14545798302
0 8 9 1 10.0 20.0 30.0 0 2 3 4 1 7 11 0.938045978546
0 8 10 0 70.0 50.0 30.0 1 8 6 4 1 4 8 2.32609987259
0 8 11 0 60.0 40.0 30.0 1 7 5 4 3 4 5 1.23556303978
0 8 12 1 60.0 50.0 20.0 1 7 6 3 4 10 12 1.48935580254
0 8 13 0 60.0 40.0 0.0 1 7 5 1 2 4 5 4.13845300674
0 8 14 1 10.0 30.0 40.0 0 2 4 5 0 8 9 2.07211184502
0 8 15 0 30.0 10.0 0.0 1 4 2 1 7 8 12 10.707419157
0 8 16 0 10.0 40.0 50.0 0 2 5 6 3 9 10 1.7681620121
0 8 17 0 50.0 10.0 0.0 1 6 2 1 2 7 14 1.4405901432
0 8 18 0 50.0 30.0 0.0 1 6 4 1 2 3 9 1.32759809494
0 8 19 0 70.0 50.0 20.0 1 8 6 3 4 10 11 1.47474694252
0 8 20 0 70.0 30.0 0.0 1 8 4 1 4 8 10 1.57783102989
0 8 21 1 60.0 50.0 0.0 1 7 6 1 1 7 12 3.64029502869
0 8 22 1 20.0 30.0 40.0 0 3 4 5 2 11 14 1.8145468235
0 8 23 1 0.0 30.0 40.0 0 1 4 5 4 6 12 1.25962114334
0 8 24 0 60.0 40.0 20.0 1 7 5 3 2 6 12 1.03724718094
0 8 25 0 70.0 50.0 0.0 1 8 6 1 0 2 8 2.85582089424
0 8 26 1 10.0 20.0 40.0 0 2 3 5 3 7 13 1.45096707344
0 8 27 0 70.0 40.0 20.0 1 8 5 3 2 4 8 1.00282907486
0 8 28 1 40.0 50.0 60.0 0 5 6 7 3 4 11 2.49664783478
0 8 29 1 0.0 20.0 50.0 0 1 3 6 4 10 14 1.34399604797
0 8 30 0 70.0 60.0 40.0 1 8 7 5 0 4 10 6.78592991829
0 8 31 1 0.0 10.0 70.0 0 1 2 8 0 2 10 0.667077064514
0 8 32 0 60.0 30.0 0.0 1 7 4 1 3 6 13 1.15931200981
0 8 33 1 20.0 30.0 60.0 0 3 4 7 8 10 11 0.744094133377
0 8 34 1 20.0 30.0 50.0 0 3 4 6 6 7 8 2.14224100113
0 8 35 0 70.0 40.0 30.0 1 8 5 4 1 10 12 1.29620718956
0 8 36 0 50.0 30.0 10.0 1 6 4 2 5 6 12 1.37418007851
0 8 37 1 60.0 50.0 30.0 1 7 6 4 1 3 10 3.04681801796
0 8 38 1 10.0 50.0 70.0 0 2 6 8 1 10 11 1.10847401619
0 8 39 0 60.0 10.0 0.0 1 7 2 1 0 2 14 0.648405075073
0 8 40 0 30.0 20.0 0.0 1 4 3 1 5 6 9 1.8130300045
0 8 41 1 10.0 40.0 70.0 0 2 5 8 9 12 13 0.756376981735
0 8 42 1 10.0 30.0 70.0 0 2 4 8 0 1 12 0.636934995651
0 8 43 1 20.0 30.0 70.0 0 3 4 8 2 4 7 0.907696008682
0 8 44 0 30.0 60.0 70.0 0 4 7 8 5 7 8 1.65447592735
0 8 45 1 50.0 40.0 0.0 1 6 5 1 8 12 13 2.31727600098
0 8 46 0 10.0 50.0 60.0 0 2 6 7 4 7 12 1.69103384018
0 8 47 0 60.0 40.0 10.0 1 7 5 2 5 12 14 6.37282395363
0 8 48 1 20.0 40.0 50.0 0 3 5 6 0 2 7 1.69640183449
0 8 49 1 0.0 20.0 40.0 0 1 3 5 3 8 13 1.62697505951
0 8 50 1 20.0 10.0 0.0 1 3 2 1 9 11 13 4.97172904015
0 8 51 0 60.0 20.0 10.0 1 7 3 2 3 12 14 0.931896924973
0 8 52 0 70.0 20.0 10.0 1 8 3 2 6 9 12 0.819200992584
0 8 53 1 70.0 60.0 20.0 1 8 7 3 1 4 11 0.858407020569
0 8 54 1 0.0 20.0 60.0 0 1 3 7 3 5 9 1.19161200523
0 8 55 0 0.0 60.0 70.0 0 1 7 8 5 6 13 0.742924928665
0 9 0 0 70.0 40.0 0.0 1 8 5 1 7 10 11 1.40374183655
0 9 1 0 50.0 20.0 10.0 1 6 3 2 3 12 13 1.37256217003
0 9 2 1 70.0 60.0 10.0 1 8 7 2 2 4 13 1.36653709412
0 9 3 1 0.0 20.0 70.0 0 1 3 8 6 9 12 1.00001311302
0 9 4 1 50.0 60.0 70.0 0 6 7 8 2 5 11 2.557970047
0 9 5 0 70.0 50.0 40.0 1 8 6 5 6 13 14 1.435338974
0 9 6 1 30.0 40.0 50.0 0 4 5 6 8 11 13 3.63732600212
0 9 7 1 0.0 10.0 40.0 0 1 2 5 1 6 12 1.04080200195
0 9 8 0 60.0 30.0 10.0 1 7 4 2 4 8 12 1.11285805702
0 9 9 1 10.0 20.0 30.0 0 2 3 4 5 9 11 1.63074111938
0 9 10 0 70.0 50.0 30.0 1 8 6 4 3 4 14 3.48057293892
0 9 11 0 60.0 40.0 30.0 1 7 5 4 0 4 10 1.04418110847
0 9 12 1 60.0 50.0 20.0 1 7 6 3 4 5 10 2.65448093414
0 9 13 0 60.0 40.0 0.0 1 7 5 1 1 4 12 2.82542991638
0 9 14 1 10.0 30.0 40.0 0 2 4 5 0 1 2 1.48147392273
0 9 15 0 30.0 10.0 0.0 1 4 2 1 1 13 14 2.10240697861
0 9 16 0 10.0 40.0 50.0 0 2 5 6 1 2 5 2.06429314613
0 9 17 0 50.0 10.0 0.0 1 6 2 1 2 4 10 1.69317412376
0 9 18 0 50.0 30.0 0.0 1 6 4 1 1 5 14 1.51497220993
0 9 19 0 70.0 50.0 20.0 1 8 6 3 1 4 8 1.21920800209
0 9 20 0 70.0 30.0 0.0 1 8 4 1 5 8 11 0.52588391304
0 9 21 1 60.0 50.0 0.0 1 7 6 1 2 9 13 1.36455798149
0 9 22 0 20.0 30.0 40.0 0 3 4 5 7 11 12 2.85268092155
0 9 23 0 0.0 30.0 40.0 0 1 4 5 2 8 12 5.06088590622
0 9 24 0 60.0 40.0 20.0 1 7 5 3 0 5 6 1.44768404961
0 9 25 0 70.0 50.0 0.0 1 8 6 1 0 7 12 0.811213970184
0 9 26 1 10.0 20.0 40.0 0 2 3 5 3 4 12 1.59732794762
0 9 27 0 70.0 40.0 20.0 1 8 5 3 8 9 10 1.05052995682
0 9 28 0 40.0 50.0 60.0 0 5 6 7 2 5 13 1.48649692535
0 9 29 1 0.0 20.0 50.0 0 1 3 6 7 12 14 2.35820198059
0 9 30 0 70.0 60.0 40.0 1 8 7 5 0 3 11 1.95550084114
0 9 31 1 0.0 10.0 70.0 0 1 2 8 1 8 14 0.787983894348
0 9 32 0 60.0 30.0 0.0 1 7 4 1 1 12 14 1.51852917671
0 9 33 1 20.0 30.0 60.0 0 3 4 7 0 6 13 1.33667612076
0 9 34 1 20.0 30.0 50.0 0 3 4 6 9 12 13 3.31586408615
0 9 35 0 70.0 40.0 30.0 1 8 5 4 5 8 10 1.0055308342
0 9 36 0 50.0 30.0 10.0 1 6 4 2 3 10 14 1.99221396446
0 9 37 1 60.0 50.0 30.0 1 7 6 4 4 8 11 3.30568814278
0 9 38 1 10.0 50.0 70.0 0 2 6 8 0 1 9 1.37737011909
0 9 39 0 60.0 10.0 0.0 1 7 2 1 2 3 6 1.84647202492
0 9 40 0 30.0 20.0 0.0 1 4 3 1 4 10 13 2.2644109726
0 9 41 1 10.0 40.0 70.0 0 2 5 8 0 3 7 0.781409978867
0 9 42 1 10.0 30.0 70.0 0 2 4 8 0 4 11 0.673481225967
0 9 43 1 20.0 30.0 70.0 0 3 4 8 0 7 10 0.565289974213
0 9 44 0 30.0 60.0 70.0 0 4 7 8 2 11 13 4.30613493919
0 9 45 1 50.0 40.0 0.0 1 6 5 1 0 1 11 1.51463890076
0 9 46 0 10.0 50.0 60.0 0 2 6 7 2 7 9 1.61714696884
0 9 47 0 60.0 40.0 10.0 1 7 5 2 5 10 14 5.64589595795
0 9 48 0 20.0 40.0 50.0 0 3 5 6 6 12 14 1.85173511505
0 9 49 1 0.0 20.0 40.0 0 1 3 5 1 4 5 1.77443480492
0 9 50 0 20.0 10.0 0.0 1 3 2 1 4 8 14 10.0623350143
0 9 51 0 60.0 20.0 10.0 1 7 3 2 1 3 8 0.930798053741
0 9 52 0 70.0 20.0 10.0 1 8 3 2 0 2 11 0.724184036255
0 9 53 1 70.0 60.0 20.0 1 8 7 3 5 9 14 1.03645014763
0 9 54 1 0.0 20.0 60.0 0 1 3 7 11 13 14 1.70380496979
0 9 55 0 0.0 60.0 70.0 0 1 7 8 5 7 11 0.960808992386
0 10 0 0 70.0 40.0 0.0 1 8 5 1 4 9 12 2.13822007179
0 10 1 0 50.0 20.0 10.0 1 6 3 2 6 11 14 1.48259091377
0 10 2 1 70.0 60.0 10.0 1 8 7 2 1 7 14 1.39896011353
0 10 3 1 0.0 20.0 70.0 0 1 3 8 1 9 10 0.781890869141
0 10 4 1 50.0 60.0 70.0 0 6 7 8 6 9 10 2.34112405777
0 10 5 0 70.0 50.0 40.0 1 8 6 5 0 1 4 1.50862812996
0 10 6 1 30.0 40.0 50.0 0 4 5 6 1 2 4 3.93015694618
0 10 7 1 0.0 10.0 40.0 0 1 2 5 0 3 10 1.15040397644
0 10 8 0 60.0 30.0 10.0 1 7 4 2 0 5 9 0.748003959656
0 10 9 1 10.0 20.0 30.0 0 2 3 4 0 7 11 1.02145409584
0 10 10 0 70.0 50.0 30.0 1 8 6 4 0 3 8 2.34787082672
0 10 11 0 60.0 40.0 30.0 1 7 5 4 2 11 14 1.11326885223
0 10 12 1 60.0 50.0 20.0 1 7 6 3 0 8 12 5.31600093842
0 10 13 0 60.0 40.0 0.0 1 7 5 1 2 6 12 3.4821100235
0 10 14 0 10.0 30.0 40.0 0 2 4 5 3 7 9 9.28694415092
0 10 15 0 30.0 10.0 0.0 1 4 2 1 3 4 5 2.00907206535
0 10 16 0 10.0 40.0 50.0 0 2 5 6 4 7 8 1.36959004402
0 10 17 0 50.0 10.0 0.0 1 6 2 1 7 11 12 1.66024303436
0 10 18 0 50.0 30.0 0.0 1 6 4 1 2 8 13 1.99027013779
0 10 19 0 70.0 50.0 20.0 1 8 6 3 11 12 13 3.98699712753
0 10 20 0 70.0 30.0 0.0 1 8 4 1 0 6 12 0.530604124069
0 10 21 1 60.0 50.0 0.0 1 7 6 1 4 5 9 1.01388692856
0 10 22 1 20.0 30.0 40.0 0 3 4 5 2 12 14 1.04381895065
0 10 23 1 0.0 30.0 40.0 0 1 4 5 4 12 14 2.06696987152
0 10 24 0 60.0 40.0 20.0 1 7 5 3 2 7 9 0.893809080124
0 10 25 0 70.0 50.0 0.0 1 8 6 1 2 8 10 1.37375712395
0 10 26 1 10.0 20.0 40.0 0 2 3 5 0 1 7 0.974682092667
0 10 27 0 70.0 40.0 20.0 1 8 5 3 3 4 12 0.650192022324
0 10 28 1 40.0 50.0 60.0 0 5 6 7 0 12 14 3.04370093346
0 10 29 1 0.0 20.0 50.0 0 1 3 6 3 5 6 1.08866000175
0 10 30 0 70.0 60.0 40.0 1 8 7 5 1 2 5 3.50626397133
0 10 31 1 0.0 10.0 70.0 0 1 2 8 2 8 9 0.829972982407
0 10 32 0 60.0 30.0 0.0 1 7 4 1 4 6 14 1.22174692154
0 10 33 1 20.0 30.0 60.0 0 3 4 7 10 11 14 0.612307071686
0 10 34 1 20.0 30.0 50.0 0 3 4 6 3 4 6 0.749294042587
0 10 35 0 70.0 40.0 30.0 1 8 5 4 9 13 14 0.600033044815
0 10 36 0 50.0 30.0 10.0 1 6 4 2 2 7 11 1.51786899567
0 10 37 1 60.0 50.0 30.0 1 7 6 4 4 5 6 10.9026179314
0 10 38 1 10.0 50.0 70.0 0 2 6 8 4 6 8 1.16031599045
0 10 39 0 60.0 10.0 0.0 1 7 2 1 0 5 13 1.1844701767
0 10 40 0 30.0 20.0 0.0 1 4 3 1 1 8 12 1.48704385757
0 10 41 1 10.0 40.0 70.0 0 2 5 8 2 8 11 0.672298192978
0 10 42 1 10.0 30.0 70.0 0 2 4 8 3 9 14 0.614213943481
0 10 43 1 20.0 30.0 70.0 0 3 4 8 5 12 13 0.63763999939
0 10 44 1 30.0 60.0 70.0 0 4 7 8 1 2 12 9.1887319088
0 10 45 1 50.0 40.0 0.0 1 6 5 1 2 5 13 3.22564506531
0 10 46 0 10.0 50.0 60.0 0 2 6 7 2 3 9 4.02513980865
0 10 47 0 60.0 40.0 10.0 1 7 5 2 12 13 14 0.961693048477
0 10 48 0 20.0 40.0 50.0 0 3 5 6 0 3 13 1.44499588013
0 10 49 1 0.0 20.0 40.0 0 1 3 5 1 6 9 1.18894910812
0 10 50 1 20.0 10.0 0.0 1 3 2 1 0 5 14 1.63242483139
0 10 51 0 60.0 20.0 10.0 1 7 3 2 0 2 3 0.693468093872
0 10 52 0 70.0 20.0 10.0 1 8 3 2 1 11 14 0.566879034042
0 10 53 1 70.0 60.0 20.0 1 8 7 3 1 7 8 0.795196056366
0 10 54 1 0.0 20.0 60.0 0 1 3 7 3 8 14 0.669770956039
0 10 55 0 0.0 60.0 70.0 0 1 7 8 1 2 11 1.13733887672
0 11 0 0 70.0 40.0 0.0 1 8 5 1 2 4 5 0.81670498848
0 11 1 0 50.0 20.0 10.0 1 6 3 2 1 3 4 0.854916095734
0 11 2 1 70.0 60.0 10.0 1 8 7 2 2 11 12 1.17971301079
0 11 3 1 0.0 20.0 70.0 0 1 3 8 4 10 12 0.892487049103
0 11 4 1 50.0 60.0 70.0 0 6 7 8 2 4 14 2.29971599579
0 11 5 0 70.0 50.0 40.0 1 8 6 5 6 7 12 0.784804821014
0 11 6 0 30.0 40.0 50.0 0 4 5 6 3 10 11 1.95109701157
0 11 7 1 0.0 10.0 40.0 0 1 2 5 2 10 12 1.21883392334
0 11 8 0 60.0 30.0 10.0 1 7 4 2 0 11 14 0.821113824844
0 11 9 1 10.0 20.0 30.0 0 2 3 4 0 2 10 0.867532014847
0 11 10 0 70.0 50.0 30.0 1 8 6 4 8 9 10 1.29604482651
0 11 11 0 60.0 40.0 30.0 1 7 5 4 6 7 11 1.51570916176
0 11 12 1 60.0 50.0 20.0 1 7 6 3 9 12 14 1.22337508202
0 11 13 0 60.0 40.0 0.0 1 7 5 1 3 4 9 2.68397903442
0 11 14 1 10.0 30.0 40.0 0 2 4 5 3 9 12 1.03806018829
0 11 15 0 30.0 10.0 0.0 1 4 2 1 1 6 7 3.12741994858
0 11 16 1 10.0 40.0 50.0 0 2 5 6 0 4 5 0.715394973755
0 11 17 0 50.0 10.0 0.0 1 6 2 1 5 9 12 1.25804591179
0 11 18 0 50.0 30.0 0.0 1 6 4 1 10 12 14 2.14690589905
0 11 19 0 70.0 50.0 20.0 1 8 6 3 2 6 14 1.32836079597
0 11 20 0 70.0 30.0 0.0 1 8 4 1 1 4 10 0.67213010788
0 11 21 1 60.0 50.0 0.0 1 7 6 1 3 4 12 0.891827106476
0 11 22 1 20.0 30.0 40.0 0 3 4 5 5 8 10 8.71396303177
0 11 23 1 0.0 30.0 40.0 0 1 4 5 7 10 13 1.81335186958
0 11 24 0 60.0 40.0 20.0 1 7 5 3 0 10 12 1.22311496735
0 11 25 0 70.0 50.0 0.0 1 8 6 1 7 12 13 0.84751200676
0 11 26 1 10.0 20.0 40.0 0 2 3 5 2 3 11 2.2931599617
0 11 27 0 70.0 40.0 20.0 1 8 5 3 6 10 12 0.673562049866
0 11 28 1 40.0 50.0 60.0 0 5 6 7 4 10 13 0.783352851868
0 11 29 1 0.0 20.0 50.0 0 1 3 6 6 8 12 1.66294384003
0 11 30 1 70.0 60.0 40.0 1 8 7 5 0 5 10 8.53380084038
0 11 31 1 0.0 10.0 70.0 0 1 2 8 4 11 13 0.708320140839
0 11 32 0 60.0 30.0 0.0 1 7 4 1 1 4 14 0.970263004303
0 11 33 1 20.0 30.0 60.0 0 3 4 7 1 12 14 0.565105199814
0 11 34 1 20.0 30.0 50.0 0 3 4 6 4 6 13 1.11224198341
0 11 35 0 70.0 40.0 30.0 1 8 5 4 1 4 13 1.07404398918
0 11 36 0 50.0 30.0 10.0 1 6 4 2 5 10 13 1.32967710495
0 11 37 1 60.0 50.0 30.0 1 7 6 4 1 6 14 3.55306911469
0 11 38 1 10.0 50.0 70.0 0 2 6 8 1 5 14 1.03592300415
0 11 39 0 60.0 10.0 0.0 1 7 2 1 10 11 12 0.57087802887
0 11 40 0 30.0 20.0 0.0 1 4 3 1 0 2 5 1.70326900482
0 11 41 1 10.0 40.0 70.0 0 2 5 8 6 9 11 0.598693132401
0 11 42 1 10.0 30.0 70.0 0 2 4 8 1 3 12 0.928479194641
0 11 43 1 20.0 30.0 70.0 0 3 4 8 5 6 9 0.633161067963
0 11 44 0 30.0 60.0 70.0 0 4 7 8 0 13 14 0.937819957733
0 11 45 1 50.0 40.0 0.0 1 6 5 1 0 7 10 3.35113406181
0 11 46 0 10.0 50.0 60.0 0 2 6 7 1 11 13 1.04246807098
0 11 47 0 60.0 40.0 10.0 1 7 5 2 1 3 6 5.05739998817
0 11 48 0 20.0 40.0 50.0 0 3 5 6 0 9 10 4.92568492889
0 11 49 1 0.0 20.0 40.0 0 1 3 5 1 4 11 1.88462495804
0 11 50 1 20.0 10.0 0.0 1 3 2 1 4 6 11 2.28340005875
0 11 51 0 60.0 20.0 10.0 1 7 3 2 4 9 12 1.15240216255
0 11 52 0 70.0 20.0 10.0 1 8 3 2 2 4 7 0.677243947983
0 11 53 1 70.0 60.0 20.0 1 8 7 3 1 8 12 1.32806897163
0 11 54 1 0.0 20.0 60.0 0 1 3 7 0 6 9 1.51439619064
0 11 55 0 0.0 60.0 70.0 0 1 7 8 0 1 8 1.94128894806
0 12 0 0 70.0 40.0 0.0 1 8 5 1 1 12 14 0.744117021561
0 12 1 0 50.0 20.0 10.0 1 6 3 2 1 2 13 0.675765991211
0 12 2 1 70.0 60.0 10.0 1 8 7 2 1 2 10 1.28952622414
0 12 3 1 0.0 20.0 70.0 0 1 3 8 2 3 9 0.757025957108
0 12 4 1 50.0 60.0 70.0 0 6 7 8 3 8 14 2.45004796982
0 12 5 0 70.0 50.0 40.0 1 8 6 5 8 9 11 1.10788393021
0 12 6 1 30.0 40.0 50.0 0 4 5 6 3 6 9 1.7722761631
0 12 7 1 0.0 10.0 40.0 0 1 2 5 4 5 12 0.9057700634
0 12 8 0 60.0 30.0 10.0 1 7 4 2 3 7 9 0.783764839172
0 12 9 1 10.0 20.0 30.0 0 2 3 4 3 11 12 1.5165848732
0 12 10 0 70.0 50.0 30.0 1 8 6 4 2 8 10 0.857213973999
0 12 11 0 60.0 40.0 30.0 1 7 5 4 7 8 9 1.3316848278
0 12 12 1 60.0 50.0 20.0 1 7 6 3 4 11 13 1.18583202362
0 12 13 0 60.0 40.0 0.0 1 7 5 1 0 1 5 2.15282392502
0 12 14 1 10.0 30.0 40.0 0 2 4 5 5 7 13 1.37602996826
0 12 15 0 30.0 10.0 0.0 1 4 2 1 1 6 7 1.11564302444
0 12 16 1 10.0 40.0 50.0 0 2 5 6 0 2 5 0.856857061386
0 12 17 0 50.0 10.0 0.0 1 6 2 1 1 4 14 0.783074140549
0 12 18 0 50.0 30.0 0.0 1 6 4 1 1 7 10 0.893910884857
0 12 19 0 70.0 50.0 20.0 1 8 6 3 2 8 9 2.10717988014
0 12 20 0 70.0 30.0 0.0 1 8 4 1 0 2 11 0.926489114761
0 12 21 1 60.0 50.0 0.0 1 7 6 1 0 2 6 1.36462497711
0 12 22 0 20.0 30.0 40.0 0 3 4 5 3 4 5 3.81050896645
0 12 23 1 0.0 30.0 40.0 0 1 4 5 2 10 14 1.55232095718
0 12 24 0 60.0 40.0 20.0 1 7 5 3 5 7 10 2.76688504219
0 12 25 0 70.0 50.0 0.0 1 8 6 1 4 10 11 1.10823202133
0 12 26 1 10.0 20.0 40.0 0 2 3 5 4 8 12 1.05459284782
0 12 27 0 70.0 40.0 20.0 1 8 5 3 0 5 6 1.11574816704
0 12 28 1 40.0 50.0 60.0 0 5 6 7 1 3 7 3.23799204826
0 12 29 1 0.0 20.0 50.0 0 1 3 6 9 11 13 1.34504795074
0 12 30 0 70.0 60.0 40.0 1 8 7 5 2 6 14 20.7442269325
0 12 31 1 0.0 10.0 70.0 0 1 2 8 1 2 4 0.599081039429
0 12 32 0 60.0 30.0 0.0 1 7 4 1 8 10 13 0.605210065842
0 12 33 1 20.0 30.0 60.0 0 3 4 7 1 13 14 0.671452999115
0 12 34 1 20.0 30.0 50.0 0 3 4 6 0 8 11 1.85347390175
0 12 35 0 70.0 40.0 30.0 1 8 5 4 2 6 13 0.814713001251
0 12 36 0 50.0 30.0 10.0 1 6 4 2 2 4 12 1.33388805389
0 12 37 1 60.0 50.0 30.0 1 7 6 4 2 9 12 1.29338812828
0 12 38 1 10.0 50.0 70.0 0 2 6 8 4 5 10 0.794686079025
0 12 39 0 60.0 10.0 0.0 1 7 2 1 7 11 12 1.29637098312
0 12 40 0 30.0 20.0 0.0 1 4 3 1 7 8 11 1.51916408539
0 12 41 1 10.0 40.0 70.0 0 2 5 8 1 3 14 0.646508216858
0 12 42 1 10.0 30.0 70.0 0 2 4 8 2 5 7 0.70933508873
0 12 43 1 20.0 30.0 70.0 0 3 4 8 0 1 8 1.03941011429
0 12 44 0 30.0 60.0 70.0 0 4 7 8 6 7 9 1.43885588646
0 12 45 1 50.0 40.0 0.0 1 6 5 1 1 4 9 1.33007597923
0 12 46 0 10.0 50.0 60.0 0 2 6 7 7 13 14 1.34136795998
0 12 47 0 60.0 40.0 10.0 1 7 5 2 2 9 13 5.97140479088
0 12 48 0 20.0 40.0 50.0 0 3 5 6 8 9 13 2.65364408493
0 12 49 1 0.0 20.0 40.0 0 1 3 5 0 9 12 3.24055600166
0 12 50 1 20.0 10.0 0.0 1 3 2 1 1 3 11 2.0454390049
0 12 51 0 60.0 20.0 10.0 1 7 3 2 1 5 9 0.674211025238
0 12 52 0 70.0 20.0 10.0 1 8 3 2 4 6 7 0.613001823425
0 12 53 1 70.0 60.0 20.0 1 8 7 3 3 11 13 1.00007295609
0 12 54 1 0.0 20.0 60.0 0 1 3 7 3 7 10 1.33223104477
0 12 55 0 0.0 60.0 70.0 0 1 7 8 3 4 7 0.846660852432
0 13 0 0 70.0 40.0 0.0 1 8 5 1 3 4 13 1.14461612701
0 13 1 0 50.0 20.0 10.0 1 6 3 2 0 5 10 1.26144194603
0 13 2 1 70.0 60.0 10.0 1 8 7 2 0 2 9 1.44874882698
0 13 3 1 0.0 20.0 70.0 0 1 3 8 2 3 5 0.88743686676
0 13 4 1 50.0 60.0 70.0 0 6 7 8 0 1 10 4.44690704346
0 13 5 0 70.0 50.0 40.0 1 8 6 5 1 8 11 0.866848945618
0 13 6 1 30.0 40.0 50.0 0 4 5 6 0 11 13 3.27263212204
0 13 7 1 0.0 10.0 40.0 0 1 2 5 2 9 10 0.961749792099
0 13 8 0 60.0 30.0 10.0 1 7 4 2 0 5 11 0.638369083405
0 13 9 1 10.0 20.0 30.0 0 2 3 4 2 10 14 1.44775009155
0 13 10 0 70.0 50.0 30.0 1 8 6 4 0 5 6 2.27397179604
0 13 11 0 60.0 40.0 30.0 1 7 5 4 0 10 12 0.71072101593
0 13 12 1 60.0 50.0 20.0 1 7 6 3 0 1 14 1.33141613007
0 13 13 1 60.0 40.0 0.0 1 7 5 1 1 5 7 1.51213598251
0 13 14 0 10.0 30.0 40.0 0 2 4 5 0 7 11 4.30308699608
0 13 15 0 30.0 10.0 0.0 1 4 2 1 0 1 2 1.98845601082
0 13 16 0 10.0 40.0 50.0 0 2 5 6 3 4 5 1.37368917465
0 13 17 0 50.0 10.0 0.0 1 6 2 1 3 6 7 1.91666293144
0 13 18 0 50.0 30.0 0.0 1 6 4 1 1 9 14 4.92822504044
0 13 19 0 70.0 50.0 20.0 1 8 6 3 8 10 11 4.58651399612
0 13 20 0 70.0 30.0 0.0 1 8 4 1 3 4 9 0.853731870651
0 13 21 1 60.0 50.0 0.0 1 7 6 1 3 7 13 1.32820177078
0 13 22 1 20.0 30.0 40.0 0 3 4 5 1 7 10 2.28711390495
0 13 23 1 0.0 30.0 40.0 0 1 4 5 4 7 11 2.09701490402
0 13 24 0 60.0 40.0 20.0 1 7 5 3 5 9 12 1.4111020565
0 13 25 0 70.0 50.0 0.0 1 8 6 1 1 2 7 0.961912870407
0 13 26 1 10.0 20.0 40.0 0 2 3 5 3 12 13 1.63052511215
0 13 27 0 70.0 40.0 20.0 1 8 5 3 3 10 12 1.07893109322
0 13 28 1 40.0 50.0 60.0 0 5 6 7 3 10 13 1.83640193939
0 13 29 1 0.0 20.0 50.0 0 1 3 6 3 6 8 1.34756112099
0 13 30 0 70.0 60.0 40.0 1 8 7 5 4 13 14 4.60143589973
0 13 31 1 0.0 10.0 70.0 0 1 2 8 5 9 10 0.748939037323
0 13 32 0 60.0 30.0 0.0 1 7 4 1 2 6 10 0.932386159897
0 13 33 1 20.0 30.0 60.0 0 3 4 7 9 11 12 0.584264993668
0 13 34 1 20.0 30.0 50.0 0 3 4 6 1 3 5 0.755787849426
0 13 35 0 70.0 40.0 30.0 1 8 5 4 0 3 10 0.745886087418
0 13 36 0 50.0 30.0 10.0 1 6 4 2 3 13 14 1.2359650135
0 13 37 1 60.0 50.0 30.0 1 7 6 4 6 13 14 6.03978705406
0 13 38 1 10.0 50.0 70.0 0 2 6 8 2 9 14 1.00402593613
0 13 39 0 60.0 10.0 0.0 1 7 2 1 9 11 14 1.11085891724
0 13 40 0 30.0 20.0 0.0 1 4 3 1 0 1 9 2.03365492821
0 13 41 1 10.0 40.0 70.0 0 2 5 8 1 10 11 0.813147068024
0 13 42 1 10.0 30.0 70.0 0 2 4 8 5 8 10 1.15018296242
0 13 43 1 20.0 30.0 70.0 0 3 4 8 4 9 12 0.603826999664
0 13 44 0 30.0 60.0 70.0 0 4 7 8 0 9 13 1.10828781128
0 13 45 1 50.0 40.0 0.0 1 6 5 1 7 10 14 1.04130983353
0 13 46 0 10.0 50.0 60.0 0 2 6 7 3 9 10 1.36604690552
0 13 47 0 60.0 40.0 10.0 1 7 5 2 1 3 7 2.83014202118
0 13 48 0 20.0 40.0 50.0 0 3 5 6 3 5 11 6.1447930336
0 13 49 1 0.0 20.0 40.0 0 1 3 5 2 6 9 1.99905705452
0 13 50 0 20.0 10.0 0.0 1 3 2 1 8 10 13 1.85137295723
0 13 51 0 60.0 20.0 10.0 1 7 3 2 1 6 12 0.858125925064
0 13 52 0 70.0 20.0 10.0 1 8 3 2 5 7 13 0.965162992477
0 13 53 1 70.0 60.0 20.0 1 8 7 3 1 9 13 1.39607810974
0 13 54 1 0.0 20.0 60.0 0 1 3 7 6 12 14 0.747214078903
0 13 55 0 0.0 60.0 70.0 0 1 7 8 6 9 13 1.60913991928
0 14 0 0 70.0 40.0 0.0 1 8 5 1 4 8 9 0.853065013885
0 14 1 0 50.0 20.0 10.0 1 6 3 2 0 7 10 1.01950788498
0 14 2 1 70.0 60.0 10.0 1 8 7 2 1 2 13 1.22145795822
0 14 3 1 0.0 20.0 70.0 0 1 3 8 4 9 11 0.636424064636
0 14 4 0 50.0 60.0 70.0 0 6 7 8 5 10 13 1.03292894363
0 14 5 0 70.0 50.0 40.0 1 8 6 5 2 12 14 0.610070943832
0 14 6 1 30.0 40.0 50.0 0 4 5 6 6 10 11 1.80863213539
0 14 7 1 0.0 10.0 40.0 0 1 2 5 0 6 13 0.820401906967
0 14 8 0 60.0 30.0 10.0 1 7 4 2 2 9 10 1.07778906822
0 14 9 1 10.0 20.0 30.0 0 2 3 4 1 9 14 1.1173388958
0 14 10 1 70.0 50.0 30.0 1 8 6 4 1 6 13 2.41562199593
0 14 11 0 60.0 40.0 30.0 1 7 5 4 7 10 12 1.15252804756
0 14 12 1 60.0 50.0 20.0 1 7 6 3 5 10 12 1.80739998817
0 14 13 0 60.0 40.0 0.0 1 7 5 1 0 2 3 2.76380991936
0 14 14 1 10.0 30.0 40.0 0 2 4 5 0 10 11 0.895982027054
0 14 15 0 30.0 10.0 0.0 1 4 2 1 2 4 9 1.42154312134
0 14 16 0 10.0 40.0 50.0 0 2 5 6 0 2 6 8.57620191574
0 14 17 0 50.0 10.0 0.0 1 6 2 1 7 11 13 0.934197902679
0 14 18 0 50.0 30.0 0.0 1 6 4 1 8 9 14 2.97977805138
0 14 19 0 70.0 50.0 20.0 1 8 6 3 6 7 14 0.778468132019
0 14 20 0 70.0 30.0 0.0 1 8 4 1 4 9 14 0.850230932236
0 14 21 1 60.0 50.0 0.0 1 7 6 1 0 6 12 1.14551496506
0 14 22 1 20.0 30.0 40.0 0 3 4 5 0 3 10 4.83546113968
0 14 23 1 0.0 30.0 40.0 0 1 4 5 1 6 14 1.03973507881
0 14 24 0 60.0 40.0 20.0 1 7 5 3 2 5 6 0.972285985947
0 14 25 0 70.0 50.0 0.0 1 8 6 1 1 8 14 2.52604603767
0 14 26 1 10.0 20.0 40.0 0 2 3 5 3 4 11 1.35050702095
0 14 27 0 70.0 40.0 20.0 1 8 5 3 3 13 14 0.673432826996
0 14 28 0 40.0 50.0 60.0 0 5 6 7 3 5 8 3.00203800201
0 14 29 1 0.0 20.0 50.0 0 1 3 6 4 13 14 1.95724487305
0 14 30 1 70.0 60.0 40.0 1 8 7 5 8 9 13 2.05247616768
0 14 31 1 0.0 10.0 70.0 0 1 2 8 2 8 12 0.634986162186
0 14 32 0 60.0 30.0 0.0 1 7 4 1 4 10 13 1.14781999588
0 14 33 1 20.0 30.0 60.0 0 3 4 7 4 7 11 1.96788692474
0 14 34 1 20.0 30.0 50.0 0 3 4 6 3 12 14 1.63343191147
0 14 35 0 70.0 40.0 30.0 1 8 5 4 3 4 8 1.14192080498
0 14 36 0 50.0 30.0 10.0 1 6 4 2 1 10 13 1.33282184601
0 14 37 1 60.0 50.0 30.0 1 7 6 4 0 8 13 1.33082914352
0 14 38 1 10.0 50.0 70.0 0 2 6 8 6 10 12 0.744265079498
0 14 39 0 60.0 10.0 0.0 1 7 2 1 2 7 12 1.15177106857
0 14 40 1 30.0 20.0 0.0 1 4 3 1 7 9 13 1.70286107063
0 14 41 1 10.0 40.0 70.0 0 2 5 8 2 6 14 0.708681106567
0 14 42 1 10.0 30.0 70.0 0 2 4 8 1 2 8 0.67195892334
0 14 43 1 20.0 30.0 70.0 0 3 4 8 1 6 8 0.560837030411
0 14 44 0 30.0 60.0 70.0 0 4 7 8 2 10 12 0.926833868027
0 14 45 1 50.0 40.0 0.0 1 6 5 1 0 1 6 2.38985991478
0 14 46 0 10.0 50.0 60.0 0 2 6 7 4 10 14 1.40284013748
0 14 47 0 60.0 40.0 10.0 1 7 5 2 4 8 12 3.99970889091
0 14 48 0 20.0 40.0 50.0 0 3 5 6 4 7 9 10.3953418732
0 14 49 1 0.0 20.0 40.0 0 1 3 5 7 12 14 1.98984599113
0 14 50 1 20.0 10.0 0.0 1 3 2 1 6 8 9 1.36731410027
0 14 51 0 60.0 20.0 10.0 1 7 3 2 9 11 14 1.15370702744
0 14 52 0 70.0 20.0 10.0 1 8 3 2 10 11 14 1.17961716652
0 14 53 1 70.0 60.0 20.0 1 8 7 3 0 3 7 1.37175011635
0 14 54 1 0.0 20.0 60.0 0 1 3 7 1 8 13 1.29917812347
0 14 55 0 0.0 60.0 70.0 0 1 7 8 0 9 11 1.06556200981
